trial_nr	onset	event_type	phase	response	nr_frames	bar_width	bar_refresh_time	bar_direction	start_time	bar_blank_duration	bar_blank_interval	bg_stim_refresh_time	onset_abs	duration
0	0.1582481861114502	stim	0		0								29.846593141555786	0.2999088764190674
0	0.4503021240234375	response	0	space									30.138647079467773	
1	0.4581570625305176	stim	0		0								30.146502017974854	74.38829302787781
1	74.81662607192993	pulse	0	t									104.50497102737427	
1	74.84645009040833	stim	1		0								104.53479504585266	0.0008780956268310547
1	74.84732818603516	stim	0		0								104.53567314147949	24.000573873519897
1	76.41132712364197	pulse	0	t									106.0996720790863	
1	78.01166701316833	pulse	0	t									107.70001196861267	
1	78.82191109657288	response	0	b									108.51025605201721	
1	79.61189103126526	pulse	0	t									109.3002359867096	
1	81.21209406852722	pulse	0	t									110.90043902397156	
1	82.81236815452576	pulse	0	t									112.50071310997009	
1	83.3873450756073	response	0	b									113.07569003105164	
1	84.40601420402527	pulse	0	t									114.0943591594696	
1	86.00627303123474	pulse	0	t									115.69461798667908	
1	86.39625906944275	response	0	b									116.08460402488708	
1	87.60643720626831	pulse	0	t									117.29478216171265	
1	89.20675420761108	pulse	0	t									118.89509916305542	
1	90.807058095932	pulse	0	t									120.49540305137634	
1	91.0885181427002	response	0	b									120.77686309814453	
1	92.40721702575684	pulse	0	t									122.09556198120117	
1	94.00748419761658	pulse	0	t									123.69582915306091	
1	94.6141300201416	response	0	b									124.30247497558594	
1	95.60757517814636	pulse	0	t									125.2959201335907	
1	97.20798921585083	pulse	0	t									126.89633417129517	
1	97.4562041759491	response	0	b									127.14454913139343	
1	98.80634808540344	pulse	0	t									128.49469304084778	
2	98.84790205955505	stim	0		0	0.16666667	0.0666666666667	270.0	24.0	0.0333333333333	0.1333333333333	0.0666666666667	128.5362470149994	23.986886978149414
2	100.40636610984802	pulse	0	t		0.16666667	0.0666666666667	270.0	24.0	0.0333333333333	0.1333333333333	0.0666666666667	130.09471106529236	
2	101.47931623458862	response	0	b		0.16666667	0.0666666666667	270.0	24.0	0.0333333333333	0.1333333333333	0.0666666666667	131.16766119003296	
2	102.00629615783691	pulse	0	t		0.16666667	0.0666666666667	270.0	24.0	0.0333333333333	0.1333333333333	0.0666666666667	131.69464111328125	
2	103.60651421546936	pulse	0	t		0.16666667	0.0666666666667	270.0	24.0	0.0333333333333	0.1333333333333	0.0666666666667	133.2948591709137	
2	105.20653200149536	pulse	0	t		0.16666667	0.0666666666667	270.0	24.0	0.0333333333333	0.1333333333333	0.0666666666667	134.8948769569397	
2	105.57638812065125	response	0	b		0.16666667	0.0666666666667	270.0	24.0	0.0333333333333	0.1333333333333	0.0666666666667	135.26473307609558	
2	106.80651617050171	pulse	0	t		0.16666667	0.0666666666667	270.0	24.0	0.0333333333333	0.1333333333333	0.0666666666667	136.49486112594604	
2	108.15949010848999	response	0	b		0.16666667	0.0666666666667	270.0	24.0	0.0333333333333	0.1333333333333	0.0666666666667	137.84783506393433	
2	108.40643119812012	pulse	0	t		0.16666667	0.0666666666667	270.0	24.0	0.0333333333333	0.1333333333333	0.0666666666667	138.09477615356445	
2	110.00652623176575	pulse	0	t		0.16666667	0.0666666666667	270.0	24.0	0.0333333333333	0.1333333333333	0.0666666666667	139.69487118721008	
2	111.6065731048584	pulse	0	t		0.16666667	0.0666666666667	270.0	24.0	0.0333333333333	0.1333333333333	0.0666666666667	141.29491806030273	
2	111.92247915267944	response	0	b		0.16666667	0.0666666666667	270.0	24.0	0.0333333333333	0.1333333333333	0.0666666666667	141.61082410812378	
2	113.20644617080688	pulse	0	t		0.16666667	0.0666666666667	270.0	24.0	0.0333333333333	0.1333333333333	0.0666666666667	142.89479112625122	
2	114.19149923324585	response	0	b		0.16666667	0.0666666666667	270.0	24.0	0.0333333333333	0.1333333333333	0.0666666666667	143.87984418869019	
2	114.80642819404602	pulse	0	t		0.16666667	0.0666666666667	270.0	24.0	0.0333333333333	0.1333333333333	0.0666666666667	144.49477314949036	
2	116.406503200531	pulse	0	t		0.16666667	0.0666666666667	270.0	24.0	0.0333333333333	0.1333333333333	0.0666666666667	146.09484815597534	
2	118.00655102729797	pulse	0	t		0.16666667	0.0666666666667	270.0	24.0	0.0333333333333	0.1333333333333	0.0666666666667	147.6948959827423	
2	118.33044219017029	response	0	b		0.16666667	0.0666666666667	270.0	24.0	0.0333333333333	0.1333333333333	0.0666666666667	148.01878714561462	
2	119.6065092086792	pulse	0	t		0.16666667	0.0666666666667	270.0	24.0	0.0333333333333	0.1333333333333	0.0666666666667	149.29485416412354	
2	121.2065532207489	pulse	0	t		0.16666667	0.0666666666667	270.0	24.0	0.0333333333333	0.1333333333333	0.0666666666667	150.89489817619324	
2	122.37676501274109	response	0	b		0.16666667	0.0666666666667	270.0	24.0	0.0333333333333	0.1333333333333	0.0666666666667	152.06510996818542	
2	122.80652022361755	pulse	0	t		0.16666667	0.0666666666667	270.0	24.0	0.0333333333333	0.1333333333333	0.0666666666667	152.4948651790619	
3	122.83478903770447	stim	0		0	0.16666667	0.0666666666667	0.0	48.0	0.0333333333333	0.1333333333333	0.0666666666667	152.5231339931488	24.00357413291931
3	124.40676212310791	pulse	0	t		0.16666667	0.0666666666667	0.0	48.0	0.0333333333333	0.1333333333333	0.0666666666667	154.09510707855225	
3	125.79759001731873	response	0	b		0.16666667	0.0666666666667	0.0	48.0	0.0333333333333	0.1333333333333	0.0666666666667	155.48593497276306	
3	126.00653314590454	pulse	0	t		0.16666667	0.0666666666667	0.0	48.0	0.0333333333333	0.1333333333333	0.0666666666667	155.69487810134888	
3	127.60661005973816	pulse	0	t		0.16666667	0.0666666666667	0.0	48.0	0.0333333333333	0.1333333333333	0.0666666666667	157.2949550151825	
3	129.02056407928467	response	0	b		0.16666667	0.0666666666667	0.0	48.0	0.0333333333333	0.1333333333333	0.0666666666667	158.708909034729	
3	129.20657515525818	pulse	0	t		0.16666667	0.0666666666667	0.0	48.0	0.0333333333333	0.1333333333333	0.0666666666667	158.89492011070251	
3	130.8066530227661	pulse	0	t		0.16666667	0.0666666666667	0.0	48.0	0.0333333333333	0.1333333333333	0.0666666666667	160.49499797821045	
3	132.40667605400085	pulse	0	t		0.16666667	0.0666666666667	0.0	48.0	0.0333333333333	0.1333333333333	0.0666666666667	162.0950210094452	
3	132.60263800621033	response	0	b		0.16666667	0.0666666666667	0.0	48.0	0.0333333333333	0.1333333333333	0.0666666666667	162.29098296165466	
3	134.0067400932312	pulse	0	t		0.16666667	0.0666666666667	0.0	48.0	0.0333333333333	0.1333333333333	0.0666666666667	163.69508504867554	
3	135.6067500114441	pulse	0	t		0.16666667	0.0666666666667	0.0	48.0	0.0333333333333	0.1333333333333	0.0666666666667	165.29509496688843	
3	137.2068190574646	pulse	0	t		0.16666667	0.0666666666667	0.0	48.0	0.0333333333333	0.1333333333333	0.0666666666667	166.89516401290894	
3	138.6667811870575	response	0	b		0.16666667	0.0666666666667	0.0	48.0	0.0333333333333	0.1333333333333	0.0666666666667	168.35512614250183	
3	138.80661702156067	pulse	0	t		0.16666667	0.0666666666667	0.0	48.0	0.0333333333333	0.1333333333333	0.0666666666667	168.494961977005	
3	140.40578722953796	pulse	0	t		0.16666667	0.0666666666667	0.0	48.0	0.0333333333333	0.1333333333333	0.0666666666667	170.0941321849823	
3	142.00680422782898	pulse	0	t		0.16666667	0.0666666666667	0.0	48.0	0.0333333333333	0.1333333333333	0.0666666666667	171.69514918327332	
3	142.26071000099182	response	0	b		0.16666667	0.0666666666667	0.0	48.0	0.0333333333333	0.1333333333333	0.0666666666667	171.94905495643616	
3	143.60582423210144	pulse	0	t		0.16666667	0.0666666666667	0.0	48.0	0.0333333333333	0.1333333333333	0.0666666666667	173.29416918754578	
3	145.20588421821594	pulse	0	t		0.16666667	0.0666666666667	0.0	48.0	0.0333333333333	0.1333333333333	0.0666666666667	174.89422917366028	
3	146.80586218833923	pulse	0	t		0.16666667	0.0666666666667	0.0	48.0	0.0333333333333	0.1333333333333	0.0666666666667	176.49420714378357	
4	146.83836317062378	stim	0		0	-1.0	1.0	-1.0	72.0	0.0333333333333	0.1333333333333	0.0666666666667	176.52670812606812	16.002490043640137
4	148.22225403785706	response	0	b		-1.0	1.0	-1.0	72.0	0.0333333333333	0.1333333333333	0.0666666666667	177.9105989933014	
4	148.4071080684662	pulse	0	t		-1.0	1.0	-1.0	72.0	0.0333333333333	0.1333333333333	0.0666666666667	178.09545302391052	
4	150.00744819641113	pulse	0	t		-1.0	1.0	-1.0	72.0	0.0333333333333	0.1333333333333	0.0666666666667	179.69579315185547	
4	151.6059091091156	pulse	0	t		-1.0	1.0	-1.0	72.0	0.0333333333333	0.1333333333333	0.0666666666667	181.29425406455994	
4	153.20619320869446	pulse	0	t		-1.0	1.0	-1.0	72.0	0.0333333333333	0.1333333333333	0.0666666666667	182.8945381641388	
4	154.42307209968567	response	0	b		-1.0	1.0	-1.0	72.0	0.0333333333333	0.1333333333333	0.0666666666667	184.11141705513	
4	154.80631518363953	pulse	0	t		-1.0	1.0	-1.0	72.0	0.0333333333333	0.1333333333333	0.0666666666667	184.49466013908386	
4	156.40668606758118	pulse	0	t		-1.0	1.0	-1.0	72.0	0.0333333333333	0.1333333333333	0.0666666666667	186.0950310230255	
4	157.14015316963196	response	0	b		-1.0	1.0	-1.0	72.0	0.0333333333333	0.1333333333333	0.0666666666667	186.8284981250763	
4	158.00697302818298	pulse	0	t		-1.0	1.0	-1.0	72.0	0.0333333333333	0.1333333333333	0.0666666666667	187.69531798362732	
4	159.1653470993042	response	0	b		-1.0	1.0	-1.0	72.0	0.0333333333333	0.1333333333333	0.0666666666667	188.85369205474854	
4	159.60718417167664	pulse	0	t		-1.0	1.0	-1.0	72.0	0.0333333333333	0.1333333333333	0.0666666666667	189.29552912712097	
4	161.20731210708618	pulse	0	t		-1.0	1.0	-1.0	72.0	0.0333333333333	0.1333333333333	0.0666666666667	190.89565706253052	
4	161.82594323158264	response	0	b		-1.0	1.0	-1.0	72.0	0.0333333333333	0.1333333333333	0.0666666666667	191.51428818702698	
4	162.80753421783447	pulse	0	t		-1.0	1.0	-1.0	72.0	0.0333333333333	0.1333333333333	0.0666666666667	192.4958791732788	
5	162.84085321426392	stim	0		0	0.16666667	0.0666666666667	90.0	88.0	0.0333333333333	0.1333333333333	0.0666666666667	192.52919816970825	23.99528193473816
5	164.40612506866455	pulse	0	t		0.16666667	0.0666666666667	90.0	88.0	0.0333333333333	0.1333333333333	0.0666666666667	194.0944700241089	
5	166.00609612464905	pulse	0	t		0.16666667	0.0666666666667	90.0	88.0	0.0333333333333	0.1333333333333	0.0666666666667	195.69444108009338	
5	166.9991672039032	response	0	b		0.16666667	0.0666666666667	90.0	88.0	0.0333333333333	0.1333333333333	0.0666666666667	196.68751215934753	
5	167.60609412193298	pulse	0	t		0.16666667	0.0666666666667	90.0	88.0	0.0333333333333	0.1333333333333	0.0666666666667	197.29443907737732	
5	169.20614910125732	pulse	0	t		0.16666667	0.0666666666667	90.0	88.0	0.0333333333333	0.1333333333333	0.0666666666667	198.89449405670166	
5	170.8061900138855	pulse	0	t		0.16666667	0.0666666666667	90.0	88.0	0.0333333333333	0.1333333333333	0.0666666666667	200.49453496932983	
5	172.40632915496826	pulse	0	t		0.16666667	0.0666666666667	90.0	88.0	0.0333333333333	0.1333333333333	0.0666666666667	202.0946741104126	
5	172.73721504211426	response	0	b		0.16666667	0.0666666666667	90.0	88.0	0.0333333333333	0.1333333333333	0.0666666666667	202.4255599975586	
5	174.0063180923462	pulse	0	t		0.16666667	0.0666666666667	90.0	88.0	0.0333333333333	0.1333333333333	0.0666666666667	203.69466304779053	
5	175.6063530445099	pulse	0	t		0.16666667	0.0666666666667	90.0	88.0	0.0333333333333	0.1333333333333	0.0666666666667	205.29469799995422	
5	176.05130910873413	response	0	b		0.16666667	0.0666666666667	90.0	88.0	0.0333333333333	0.1333333333333	0.0666666666667	205.73965406417847	
5	177.20637321472168	pulse	0	t		0.16666667	0.0666666666667	90.0	88.0	0.0333333333333	0.1333333333333	0.0666666666667	206.89471817016602	
5	178.10222721099854	response	0	b		0.16666667	0.0666666666667	90.0	88.0	0.0333333333333	0.1333333333333	0.0666666666667	207.79057216644287	
5	178.80635023117065	pulse	0	t		0.16666667	0.0666666666667	90.0	88.0	0.0333333333333	0.1333333333333	0.0666666666667	208.494695186615	
5	180.4064061641693	pulse	0	t		0.16666667	0.0666666666667	90.0	88.0	0.0333333333333	0.1333333333333	0.0666666666667	210.09475111961365	
5	182.00646305084229	pulse	0	t		0.16666667	0.0666666666667	90.0	88.0	0.0333333333333	0.1333333333333	0.0666666666667	211.69480800628662	
5	183.60648608207703	pulse	0	t		0.16666667	0.0666666666667	90.0	88.0	0.0333333333333	0.1333333333333	0.0666666666667	213.29483103752136	
5	185.20645022392273	pulse	0	t		0.16666667	0.0666666666667	90.0	88.0	0.0333333333333	0.1333333333333	0.0666666666667	214.89479517936707	
5	186.8065230846405	pulse	0	t		0.16666667	0.0666666666667	90.0	88.0	0.0333333333333	0.1333333333333	0.0666666666667	216.49486804008484	
6	186.83613514900208	stim	0		0	0.16666667	0.0666666666667	180.0	112.0	0.0333333333333	0.1333333333333	0.0666666666667	216.5244801044464	24.003602981567383
6	188.4064130783081	pulse	0	t		0.16666667	0.0666666666667	180.0	112.0	0.0333333333333	0.1333333333333	0.0666666666667	218.09475803375244	
6	190.00644612312317	pulse	0	t		0.16666667	0.0666666666667	180.0	112.0	0.0333333333333	0.1333333333333	0.0666666666667	219.6947910785675	
6	190.0502381324768	response	0	b		0.16666667	0.0666666666667	180.0	112.0	0.0333333333333	0.1333333333333	0.0666666666667	219.73858308792114	
6	191.60647416114807	pulse	0	t		0.16666667	0.0666666666667	180.0	112.0	0.0333333333333	0.1333333333333	0.0666666666667	221.2948191165924	
6	193.2064790725708	pulse	0	t		0.16666667	0.0666666666667	180.0	112.0	0.0333333333333	0.1333333333333	0.0666666666667	222.89482402801514	
6	193.4203040599823	response	0	b		0.16666667	0.0666666666667	180.0	112.0	0.0333333333333	0.1333333333333	0.0666666666667	223.10864901542664	
6	194.80645513534546	pulse	0	t		0.16666667	0.0666666666667	180.0	112.0	0.0333333333333	0.1333333333333	0.0666666666667	224.4948000907898	
6	196.406503200531	pulse	0	t		0.16666667	0.0666666666667	180.0	112.0	0.0333333333333	0.1333333333333	0.0666666666667	226.09484815597534	
6	198.00647807121277	pulse	0	t		0.16666667	0.0666666666667	180.0	112.0	0.0333333333333	0.1333333333333	0.0666666666667	227.6948230266571	
6	199.12554121017456	response	0	b		0.16666667	0.0666666666667	180.0	112.0	0.0333333333333	0.1333333333333	0.0666666666667	228.8138861656189	
6	199.60645008087158	pulse	0	t		0.16666667	0.0666666666667	180.0	112.0	0.0333333333333	0.1333333333333	0.0666666666667	229.29479503631592	
6	201.20656204223633	pulse	0	t		0.16666667	0.0666666666667	180.0	112.0	0.0333333333333	0.1333333333333	0.0666666666667	230.89490699768066	
6	201.89652919769287	response	0	b		0.16666667	0.0666666666667	180.0	112.0	0.0333333333333	0.1333333333333	0.0666666666667	231.5848741531372	
6	202.80657601356506	pulse	0	t		0.16666667	0.0666666666667	180.0	112.0	0.0333333333333	0.1333333333333	0.0666666666667	232.4949209690094	
6	203.97952914237976	response	0	b		0.16666667	0.0666666666667	180.0	112.0	0.0333333333333	0.1333333333333	0.0666666666667	233.6678740978241	
6	204.40651512145996	pulse	0	t		0.16666667	0.0666666666667	180.0	112.0	0.0333333333333	0.1333333333333	0.0666666666667	234.0948600769043	
6	206.00660109519958	pulse	0	t		0.16666667	0.0666666666667	180.0	112.0	0.0333333333333	0.1333333333333	0.0666666666667	235.69494605064392	
6	207.60662412643433	pulse	0	t		0.16666667	0.0666666666667	180.0	112.0	0.0333333333333	0.1333333333333	0.0666666666667	237.29496908187866	
6	208.99359917640686	response	0	b		0.16666667	0.0666666666667	180.0	112.0	0.0333333333333	0.1333333333333	0.0666666666667	238.6819441318512	
6	209.20659112930298	pulse	0	t		0.16666667	0.0666666666667	180.0	112.0	0.0333333333333	0.1333333333333	0.0666666666667	238.89493608474731	
6	210.8066680431366	pulse	0	t		0.16666667	0.0666666666667	180.0	112.0	0.0333333333333	0.1333333333333	0.0666666666667	240.49501299858093	
7	210.83973813056946	stim	0		0	-1.0	1.0	-1.0	136.0	0.0333333333333	0.1333333333333	0.0666666666667	240.5280830860138	16.00227403640747
7	212.02332711219788	response	0	b		-1.0	1.0	-1.0	136.0	0.0333333333333	0.1333333333333	0.0666666666667	241.7116720676422	
7	212.4065752029419	pulse	0	t		-1.0	1.0	-1.0	136.0	0.0333333333333	0.1333333333333	0.0666666666667	242.09492015838623	
7	214.00688123703003	pulse	0	t		-1.0	1.0	-1.0	136.0	0.0333333333333	0.1333333333333	0.0666666666667	243.69522619247437	
7	215.60711216926575	pulse	0	t		-1.0	1.0	-1.0	136.0	0.0333333333333	0.1333333333333	0.0666666666667	245.29545712471008	
7	217.207346200943	pulse	0	t		-1.0	1.0	-1.0	136.0	0.0333333333333	0.1333333333333	0.0666666666667	246.89569115638733	
7	218.80766701698303	pulse	0	t		-1.0	1.0	-1.0	136.0	0.0333333333333	0.1333333333333	0.0666666666667	248.49601197242737	
7	220.4079611301422	pulse	0	t		-1.0	1.0	-1.0	136.0	0.0333333333333	0.1333333333333	0.0666666666667	250.09630608558655	
7	220.7496042251587	response	0	b		-1.0	1.0	-1.0	136.0	0.0333333333333	0.1333333333333	0.0666666666667	250.43794918060303	
7	222.0080680847168	pulse	0	t		-1.0	1.0	-1.0	136.0	0.0333333333333	0.1333333333333	0.0666666666667	251.69641304016113	
7	223.60827207565308	pulse	0	t		-1.0	1.0	-1.0	136.0	0.0333333333333	0.1333333333333	0.0666666666667	253.2966170310974	
7	225.20869612693787	pulse	0	t		-1.0	1.0	-1.0	136.0	0.0333333333333	0.1333333333333	0.0666666666667	254.8970410823822	
7	226.05031609535217	response	0	b		-1.0	1.0	-1.0	136.0	0.0333333333333	0.1333333333333	0.0666666666667	255.7386610507965	
7	226.80888414382935	pulse	0	t		-1.0	1.0	-1.0	136.0	0.0333333333333	0.1333333333333	0.0666666666667	256.4972290992737	
8	226.84201216697693	stim	0		0	-1.0	1.0	-1.0	152.0	0.0333333333333	0.1333333333333	0.0666666666667	256.53035712242126	16.002378940582275
8	228.40923404693604	pulse	0	t		-1.0	1.0	-1.0	152.0	0.0333333333333	0.1333333333333	0.0666666666667	258.09757900238037	
8	230.00932121276855	pulse	0	t		-1.0	1.0	-1.0	152.0	0.0333333333333	0.1333333333333	0.0666666666667	259.6976661682129	
8	231.60952806472778	pulse	0	t		-1.0	1.0	-1.0	152.0	0.0333333333333	0.1333333333333	0.0666666666667	261.2978730201721	
8	233.20992612838745	pulse	0	t		-1.0	1.0	-1.0	152.0	0.0333333333333	0.1333333333333	0.0666666666667	262.8982710838318	
8	233.78500318527222	response	0	b		-1.0	1.0	-1.0	152.0	0.0333333333333	0.1333333333333	0.0666666666667	263.47334814071655	
8	234.81015419960022	pulse	0	t		-1.0	1.0	-1.0	152.0	0.0333333333333	0.1333333333333	0.0666666666667	264.49849915504456	
8	236.4103422164917	pulse	0	t		-1.0	1.0	-1.0	152.0	0.0333333333333	0.1333333333333	0.0666666666667	266.09868717193604	
8	238.0104660987854	pulse	0	t		-1.0	1.0	-1.0	152.0	0.0333333333333	0.1333333333333	0.0666666666667	267.69881105422974	
8	239.4607810974121	response	0	b		-1.0	1.0	-1.0	152.0	0.0333333333333	0.1333333333333	0.0666666666667	269.14912605285645	
8	239.61075615882874	pulse	0	t		-1.0	1.0	-1.0	152.0	0.0333333333333	0.1333333333333	0.0666666666667	269.29910111427307	
8	241.2110230922699	pulse	0	t		-1.0	1.0	-1.0	152.0	0.0333333333333	0.1333333333333	0.0666666666667	270.89936804771423	
8	242.81142401695251	pulse	0	t		-1.0	1.0	-1.0	152.0	0.0333333333333	0.1333333333333	0.0666666666667	272.49976897239685	
9	242.8443911075592	stim	0		0	0.16666667	0.0666666666667	180.0	168.0	0.0333333333333	0.1333333333333	0.0666666666667	272.53273606300354	23.9953191280365
9	244.40608716011047	pulse	0	t		0.16666667	0.0666666666667	180.0	168.0	0.0333333333333	0.1333333333333	0.0666666666667	274.0944321155548	
9	245.84205508232117	response	0	b		0.16666667	0.0666666666667	180.0	168.0	0.0333333333333	0.1333333333333	0.0666666666667	275.5304000377655	
9	246.0059311389923	pulse	0	t		0.16666667	0.0666666666667	180.0	168.0	0.0333333333333	0.1333333333333	0.0666666666667	275.69427609443665	
9	247.60610604286194	pulse	0	t		0.16666667	0.0666666666667	180.0	168.0	0.0333333333333	0.1333333333333	0.0666666666667	277.2944509983063	
9	249.2061071395874	pulse	0	t		0.16666667	0.0666666666667	180.0	168.0	0.0333333333333	0.1333333333333	0.0666666666667	278.89445209503174	
9	249.6960790157318	response	0	b		0.16666667	0.0666666666667	180.0	168.0	0.0333333333333	0.1333333333333	0.0666666666667	279.38442397117615	
9	250.80615401268005	pulse	0	t		0.16666667	0.0666666666667	180.0	168.0	0.0333333333333	0.1333333333333	0.0666666666667	280.4944989681244	
9	252.4062020778656	pulse	0	t		0.16666667	0.0666666666667	180.0	168.0	0.0333333333333	0.1333333333333	0.0666666666667	282.09454703330994	
9	254.00618600845337	pulse	0	t		0.16666667	0.0666666666667	180.0	168.0	0.0333333333333	0.1333333333333	0.0666666666667	283.6945309638977	
9	254.05699801445007	response	0	b		0.16666667	0.0666666666667	180.0	168.0	0.0333333333333	0.1333333333333	0.0666666666667	283.7453429698944	
9	255.60616612434387	pulse	0	t		0.16666667	0.0666666666667	180.0	168.0	0.0333333333333	0.1333333333333	0.0666666666667	285.2945110797882	
9	256.92625308036804	response	0	b		0.16666667	0.0666666666667	180.0	168.0	0.0333333333333	0.1333333333333	0.0666666666667	286.6145980358124	
9	257.2061381340027	pulse	0	t		0.16666667	0.0666666666667	180.0	168.0	0.0333333333333	0.1333333333333	0.0666666666667	286.894483089447	
9	258.80625319480896	pulse	0	t		0.16666667	0.0666666666667	180.0	168.0	0.0333333333333	0.1333333333333	0.0666666666667	288.4945981502533	
9	259.12119007110596	response	0	b		0.16666667	0.0666666666667	180.0	168.0	0.0333333333333	0.1333333333333	0.0666666666667	288.8095350265503	
9	260.4062931537628	pulse	0	t		0.16666667	0.0666666666667	180.0	168.0	0.0333333333333	0.1333333333333	0.0666666666667	290.09463810920715	
9	261.14825320243835	response	0	b		0.16666667	0.0666666666667	180.0	168.0	0.0333333333333	0.1333333333333	0.0666666666667	290.8365981578827	
9	262.0063011646271	pulse	0	t		0.16666667	0.0666666666667	180.0	168.0	0.0333333333333	0.1333333333333	0.0666666666667	291.6946461200714	
9	263.60621905326843	pulse	0	t		0.16666667	0.0666666666667	180.0	168.0	0.0333333333333	0.1333333333333	0.0666666666667	293.29456400871277	
9	263.8832471370697	response	0	b		0.16666667	0.0666666666667	180.0	168.0	0.0333333333333	0.1333333333333	0.0666666666667	293.57159209251404	
9	265.2062361240387	pulse	0	t		0.16666667	0.0666666666667	180.0	168.0	0.0333333333333	0.1333333333333	0.0666666666667	294.89458107948303	
9	266.8063340187073	pulse	0	t		0.16666667	0.0666666666667	180.0	168.0	0.0333333333333	0.1333333333333	0.0666666666667	296.4946789741516	
10	266.8397102355957	stim	0		0	0.16666667	0.0666666666667	90.0	192.0	0.0333333333333	0.1333333333333	0.0666666666667	296.52805519104004	23.995235919952393
10	268.4063231945038	pulse	0	t		0.16666667	0.0666666666667	90.0	192.0	0.0333333333333	0.1333333333333	0.0666666666667	298.0946681499481	
10	270.0064070224762	pulse	0	t		0.16666667	0.0666666666667	90.0	192.0	0.0333333333333	0.1333333333333	0.0666666666667	299.69475197792053	
10	270.2622752189636	response	0	b		0.16666667	0.0666666666667	90.0	192.0	0.0333333333333	0.1333333333333	0.0666666666667	299.95062017440796	
10	271.606418132782	pulse	0	t		0.16666667	0.0666666666667	90.0	192.0	0.0333333333333	0.1333333333333	0.0666666666667	301.2947630882263	
10	273.2064402103424	pulse	0	t		0.16666667	0.0666666666667	90.0	192.0	0.0333333333333	0.1333333333333	0.0666666666667	302.89478516578674	
10	274.3383860588074	response	0	b		0.16666667	0.0666666666667	90.0	192.0	0.0333333333333	0.1333333333333	0.0666666666667	304.0267310142517	
10	274.8063690662384	pulse	0	t		0.16666667	0.0666666666667	90.0	192.0	0.0333333333333	0.1333333333333	0.0666666666667	304.49471402168274	
10	276.4064540863037	pulse	0	t		0.16666667	0.0666666666667	90.0	192.0	0.0333333333333	0.1333333333333	0.0666666666667	306.09479904174805	
10	278.00648522377014	pulse	0	t		0.16666667	0.0666666666667	90.0	192.0	0.0333333333333	0.1333333333333	0.0666666666667	307.6948301792145	
10	279.60650300979614	pulse	0	t		0.16666667	0.0666666666667	90.0	192.0	0.0333333333333	0.1333333333333	0.0666666666667	309.2948479652405	
10	280.441801071167	response	0	b		0.16666667	0.0666666666667	90.0	192.0	0.0333333333333	0.1333333333333	0.0666666666667	310.1301460266113	
10	281.2065100669861	pulse	0	t		0.16666667	0.0666666666667	90.0	192.0	0.0333333333333	0.1333333333333	0.0666666666667	310.8948550224304	
10	282.8065140247345	pulse	0	t		0.16666667	0.0666666666667	90.0	192.0	0.0333333333333	0.1333333333333	0.0666666666667	312.49485898017883	
10	284.1595530509949	response	0	b		0.16666667	0.0666666666667	90.0	192.0	0.0333333333333	0.1333333333333	0.0666666666667	313.8478980064392	
10	284.4064750671387	pulse	0	t		0.16666667	0.0666666666667	90.0	192.0	0.0333333333333	0.1333333333333	0.0666666666667	314.094820022583	
10	286.0065200328827	pulse	0	t		0.16666667	0.0666666666667	90.0	192.0	0.0333333333333	0.1333333333333	0.0666666666667	315.694864988327	
10	287.6065511703491	pulse	0	t		0.16666667	0.0666666666667	90.0	192.0	0.0333333333333	0.1333333333333	0.0666666666667	317.29489612579346	
10	289.2066352367401	pulse	0	t		0.16666667	0.0666666666667	90.0	192.0	0.0333333333333	0.1333333333333	0.0666666666667	318.89498019218445	
10	289.9767231941223	response	0	b		0.16666667	0.0666666666667	90.0	192.0	0.0333333333333	0.1333333333333	0.0666666666667	319.66506814956665	
10	290.80658316612244	pulse	0	t		0.16666667	0.0666666666667	90.0	192.0	0.0333333333333	0.1333333333333	0.0666666666667	320.4949281215668	
11	290.8349461555481	stim	0		0	-1.0	1.0	-1.0	216.0	0.0333333333333	0.1333333333333	0.0666666666667	320.52329111099243	16.010779857635498
11	292.4103832244873	pulse	0	t		-1.0	1.0	-1.0	216.0	0.0333333333333	0.1333333333333	0.0666666666667	322.09872817993164	
11	294.0105662345886	pulse	0	t		-1.0	1.0	-1.0	216.0	0.0333333333333	0.1333333333333	0.0666666666667	323.69891119003296	
11	295.61098623275757	pulse	0	t		-1.0	1.0	-1.0	216.0	0.0333333333333	0.1333333333333	0.0666666666667	325.2993311882019	
11	296.9110050201416	response	0	b		-1.0	1.0	-1.0	216.0	0.0333333333333	0.1333333333333	0.0666666666667	326.59934997558594	
11	297.2109351158142	pulse	0	t		-1.0	1.0	-1.0	216.0	0.0333333333333	0.1333333333333	0.0666666666667	326.89928007125854	
11	298.8113582134247	pulse	0	t		-1.0	1.0	-1.0	216.0	0.0333333333333	0.1333333333333	0.0666666666667	328.499703168869	
11	300.411541223526	pulse	0	t		-1.0	1.0	-1.0	216.0	0.0333333333333	0.1333333333333	0.0666666666667	330.09988617897034	
11	300.85317301750183	response	0	b		-1.0	1.0	-1.0	216.0	0.0333333333333	0.1333333333333	0.0666666666667	330.54151797294617	
11	302.0119252204895	pulse	0	t		-1.0	1.0	-1.0	216.0	0.0333333333333	0.1333333333333	0.0666666666667	331.70027017593384	
11	303.04517817497253	response	0	b		-1.0	1.0	-1.0	216.0	0.0333333333333	0.1333333333333	0.0666666666667	332.73352313041687	
11	303.6120250225067	pulse	0	t		-1.0	1.0	-1.0	216.0	0.0333333333333	0.1333333333333	0.0666666666667	333.30036997795105	
11	305.2121670246124	pulse	0	t		-1.0	1.0	-1.0	216.0	0.0333333333333	0.1333333333333	0.0666666666667	334.90051198005676	
11	305.42891216278076	response	0	b		-1.0	1.0	-1.0	216.0	0.0333333333333	0.1333333333333	0.0666666666667	335.1172571182251	
11	306.8124032020569	pulse	0	t		-1.0	1.0	-1.0	216.0	0.0333333333333	0.1333333333333	0.0666666666667	336.5007481575012	
12	306.8457260131836	stim	0		0	0.16666667	0.0666666666667	0.0	232.0	0.0333333333333	0.1333333333333	0.0666666666667	336.53407096862793	23.995235204696655
12	308.4068720340729	pulse	0	t		0.16666667	0.0666666666667	0.0	232.0	0.0333333333333	0.1333333333333	0.0666666666667	338.0952169895172	
12	310.0068681240082	pulse	0	t		0.16666667	0.0666666666667	0.0	232.0	0.0333333333333	0.1333333333333	0.0666666666667	339.6952130794525	
12	311.6069002151489	pulse	0	t		0.16666667	0.0666666666667	0.0	232.0	0.0333333333333	0.1333333333333	0.0666666666667	341.29524517059326	
12	313.2069070339203	pulse	0	t		0.16666667	0.0666666666667	0.0	232.0	0.0333333333333	0.1333333333333	0.0666666666667	342.8952519893646	
12	313.91288018226624	response	0	b		0.16666667	0.0666666666667	0.0	232.0	0.0333333333333	0.1333333333333	0.0666666666667	343.60122513771057	
12	314.80690002441406	pulse	0	t		0.16666667	0.0666666666667	0.0	232.0	0.0333333333333	0.1333333333333	0.0666666666667	344.4952449798584	
12	316.40696716308594	pulse	0	t		0.16666667	0.0666666666667	0.0	232.0	0.0333333333333	0.1333333333333	0.0666666666667	346.0953121185303	
12	318.0069742202759	pulse	0	t		0.16666667	0.0666666666667	0.0	232.0	0.0333333333333	0.1333333333333	0.0666666666667	347.6953191757202	
12	318.5089371204376	response	0	b		0.16666667	0.0666666666667	0.0	232.0	0.0333333333333	0.1333333333333	0.0666666666667	348.19728207588196	
12	319.607045173645	pulse	0	t		0.16666667	0.0666666666667	0.0	232.0	0.0333333333333	0.1333333333333	0.0666666666667	349.29539012908936	
12	320.99301314353943	response	0	b		0.16666667	0.0666666666667	0.0	232.0	0.0333333333333	0.1333333333333	0.0666666666667	350.68135809898376	
12	321.2068991661072	pulse	0	t		0.16666667	0.0666666666667	0.0	232.0	0.0333333333333	0.1333333333333	0.0666666666667	350.8952441215515	
12	322.80705523490906	pulse	0	t		0.16666667	0.0666666666667	0.0	232.0	0.0333333333333	0.1333333333333	0.0666666666667	352.4954001903534	
12	323.665030002594	response	0	b		0.16666667	0.0666666666667	0.0	232.0	0.0333333333333	0.1333333333333	0.0666666666667	353.35337495803833	
12	324.4069981575012	pulse	0	t		0.16666667	0.0666666666667	0.0	232.0	0.0333333333333	0.1333333333333	0.0666666666667	354.09534311294556	
12	325.73505902290344	response	0	b		0.16666667	0.0666666666667	0.0	232.0	0.0333333333333	0.1333333333333	0.0666666666667	355.4234039783478	
12	326.0069811344147	pulse	0	t		0.16666667	0.0666666666667	0.0	232.0	0.0333333333333	0.1333333333333	0.0666666666667	355.695326089859	
12	327.606082201004	pulse	0	t		0.16666667	0.0666666666667	0.0	232.0	0.0333333333333	0.1333333333333	0.0666666666667	357.29442715644836	
12	329.2071011066437	pulse	0	t		0.16666667	0.0666666666667	0.0	232.0	0.0333333333333	0.1333333333333	0.0666666666667	358.895446062088	
12	329.36722707748413	response	0	b		0.16666667	0.0666666666667	0.0	232.0	0.0333333333333	0.1333333333333	0.0666666666667	359.05557203292847	
12	330.806125164032	pulse	0	t		0.16666667	0.0666666666667	0.0	232.0	0.0333333333333	0.1333333333333	0.0666666666667	360.4944701194763	
13	330.84096121788025	stim	0		0	0.16666667	0.0666666666667	270.0	256.0	0.0333333333333	0.1333333333333	0.0666666666667	360.5293061733246	23.99524188041687
13	332.40617322921753	pulse	0	t		0.16666667	0.0666666666667	270.0	256.0	0.0333333333333	0.1333333333333	0.0666666666667	362.09451818466187	
13	332.86007618904114	response	0	b		0.16666667	0.0666666666667	270.0	256.0	0.0333333333333	0.1333333333333	0.0666666666667	362.5484211444855	
13	334.00612211227417	pulse	0	t		0.16666667	0.0666666666667	270.0	256.0	0.0333333333333	0.1333333333333	0.0666666666667	363.6944670677185	
13	335.60617423057556	pulse	0	t		0.16666667	0.0666666666667	270.0	256.0	0.0333333333333	0.1333333333333	0.0666666666667	365.2945191860199	
13	336.74920201301575	response	0	b		0.16666667	0.0666666666667	270.0	256.0	0.0333333333333	0.1333333333333	0.0666666666667	366.4375469684601	
13	337.2061460018158	pulse	0	t		0.16666667	0.0666666666667	270.0	256.0	0.0333333333333	0.1333333333333	0.0666666666667	366.89449095726013	
13	338.80625104904175	pulse	0	t		0.16666667	0.0666666666667	270.0	256.0	0.0333333333333	0.1333333333333	0.0666666666667	368.4945960044861	
13	340.40624022483826	pulse	0	t		0.16666667	0.0666666666667	270.0	256.0	0.0333333333333	0.1333333333333	0.0666666666667	370.0945851802826	
13	340.5091621875763	response	0	b		0.16666667	0.0666666666667	270.0	256.0	0.0333333333333	0.1333333333333	0.0666666666667	370.19750714302063	
13	342.0063600540161	pulse	0	t		0.16666667	0.0666666666667	270.0	256.0	0.0333333333333	0.1333333333333	0.0666666666667	371.69470500946045	
13	343.60643219947815	pulse	0	t		0.16666667	0.0666666666667	270.0	256.0	0.0333333333333	0.1333333333333	0.0666666666667	373.2947771549225	
13	345.2063901424408	pulse	0	t		0.16666667	0.0666666666667	270.0	256.0	0.0333333333333	0.1333333333333	0.0666666666667	374.89473509788513	
13	346.25530910491943	response	0	b		0.16666667	0.0666666666667	270.0	256.0	0.0333333333333	0.1333333333333	0.0666666666667	375.94365406036377	
13	346.8062582015991	pulse	0	t		0.16666667	0.0666666666667	270.0	256.0	0.0333333333333	0.1333333333333	0.0666666666667	376.49460315704346	
13	348.40636110305786	pulse	0	t		0.16666667	0.0666666666667	270.0	256.0	0.0333333333333	0.1333333333333	0.0666666666667	378.0947060585022	
13	349.53239822387695	response	0	b		0.16666667	0.0666666666667	270.0	256.0	0.0333333333333	0.1333333333333	0.0666666666667	379.2207431793213	
13	350.0063180923462	pulse	0	t		0.16666667	0.0666666666667	270.0	256.0	0.0333333333333	0.1333333333333	0.0666666666667	379.6946630477905	
13	351.6063961982727	pulse	0	t		0.16666667	0.0666666666667	270.0	256.0	0.0333333333333	0.1333333333333	0.0666666666667	381.29474115371704	
13	351.69418811798096	response	0	b		0.16666667	0.0666666666667	270.0	256.0	0.0333333333333	0.1333333333333	0.0666666666667	381.3825330734253	
13	353.2063591480255	pulse	0	t		0.16666667	0.0666666666667	270.0	256.0	0.0333333333333	0.1333333333333	0.0666666666667	382.89470410346985	
13	353.79635405540466	response	0	b		0.16666667	0.0666666666667	270.0	256.0	0.0333333333333	0.1333333333333	0.0666666666667	383.484699010849	
13	354.8063631057739	pulse	0	t		0.16666667	0.0666666666667	270.0	256.0	0.0333333333333	0.1333333333333	0.0666666666667	384.49470806121826	
14	354.8362030982971	stim	0		0								384.52454805374146	24.90366506576538
14	356.41153216362	pulse	0	t									386.09987711906433	
14	357.59688806533813	response	0	b									387.28523302078247	
14	358.0117242336273	pulse	0	t									387.70006918907166	
14	359.6121120452881	pulse	0	t									389.3004570007324	
14	361.21232414245605	pulse	0	t									390.9006690979004	
14	361.7873270511627	response	0	b									391.47567200660706	
14	362.81243920326233	pulse	0	t									392.50078415870667	
14	364.4127531051636	pulse	0	t									394.1010980606079	
14	366.0064651966095	pulse	0	t									395.69481015205383	
14	367.60657000541687	pulse	0	t									397.2949149608612	
14	367.664920091629	response	0	b									397.35326504707336	
14	369.20684909820557	pulse	0	t									398.8951940536499	
14	370.8071801662445	pulse	0	t									400.49552512168884	
14	371.34726905822754	response	0	b									401.0356140136719	
14	372.40748620033264	pulse	0	t									402.095831155777	
14	374.00765919685364	pulse	0	t									403.696004152298	
14	375.60791301727295	pulse	0	t									405.2962579727173	
14	377.2081060409546	pulse	0	t									406.8964509963989	
14	377.21468210220337	response	0	b									406.9030270576477	
14	378.80823016166687	pulse	0	t									408.4965751171112	
