trial_nr	onset	event_type	phase	response	nr_frames	bar_width	bar_refresh_time	bar_direction	start_time	bar_blank_duration	bar_blank_interval	bg_stim_refresh_time	onset_abs	duration
0	0.015088208310771734	stim	0		0								8.119149583333638	5.786542749963701
0	5.780297874996904	response	0	space									13.88435925001977	
1	5.8016309582744725	stim	0		0								13.905692333297338	1.251050666673109
1	7.0245224999962375	pulse	0	t									15.128583875019103	
1	7.052681624947581	stim	1		0								15.156742999970447	4.00001387501834
1	8.62890758330468	pulse	1	t									16.732968958327547	
1	9.552538999996614	pulse	1	t									17.65660037501948	
2	11.052695499965921	stim	0		0	-1.0	1.0	-1.0	4.0	0.0333333333333	0.1333333333333	0.0666666666667	19.156756874988787	16.000324583321344
2	11.45761758327717	response	0	j		-1.0	1.0	-1.0	4.0	0.0333333333333	0.1333333333333	0.0666666666667	19.561678958300035	
2	12.991995333286468	pulse	0	t		-1.0	1.0	-1.0	4.0	0.0333333333333	0.1333333333333	0.0666666666667	21.096056708309334	
2	13.888015333272051	response	0	j		-1.0	1.0	-1.0	4.0	0.0333333333333	0.1333333333333	0.0666666666667	21.992076708294917	
2	14.910711499978788	pulse	0	t		-1.0	1.0	-1.0	4.0	0.0333333333333	0.1333333333333	0.0666666666667	23.014772875001654	
2	15.837049833266065	pulse	0	t		-1.0	1.0	-1.0	4.0	0.0333333333333	0.1333333333333	0.0666666666667	23.94111120828893	
2	16.94024599995464	response	0	b		-1.0	1.0	-1.0	4.0	0.0333333333333	0.1333333333333	0.0666666666667	25.044307374977507	
2	17.622947999974713	pulse	0	t		-1.0	1.0	-1.0	4.0	0.0333333333333	0.1333333333333	0.0666666666667	25.72700937499758	
2	18.60913108329987	pulse	0	t		-1.0	1.0	-1.0	4.0	0.0333333333333	0.1333333333333	0.0666666666667	26.713192458322737	
2	19.540545333293267	pulse	0	t		-1.0	1.0	-1.0	4.0	0.0333333333333	0.1333333333333	0.0666666666667	27.644606708316132	
2	20.52352420828538	pulse	0	t		-1.0	1.0	-1.0	4.0	0.0333333333333	0.1333333333333	0.0666666666667	28.627585583308246	
2	21.557519499969203	pulse	0	t		-1.0	1.0	-1.0	4.0	0.0333333333333	0.1333333333333	0.0666666666667	29.66158087499207	
2	21.739598416606896	response	0	j		-1.0	1.0	-1.0	4.0	0.0333333333333	0.1333333333333	0.0666666666667	29.84365979162976	
2	22.637216458271723	pulse	0	t		-1.0	1.0	-1.0	4.0	0.0333333333333	0.1333333333333	0.0666666666667	30.74127783329459	
2	23.815641583292745	pulse	0	t		-1.0	1.0	-1.0	4.0	0.0333333333333	0.1333333333333	0.0666666666667	31.91970295831561	
2	24.555959791585337	response	0	b		-1.0	1.0	-1.0	4.0	0.0333333333333	0.1333333333333	0.0666666666667	32.6600211666082	
2	25.340419749962166	pulse	0	t		-1.0	1.0	-1.0	4.0	0.0333333333333	0.1333333333333	0.0666666666667	33.44448112498503	
2	26.18954020825913	pulse	0	t		-1.0	1.0	-1.0	4.0	0.0333333333333	0.1333333333333	0.0666666666667	34.293601583282	
2	27.039477458281908	pulse	0	t		-1.0	1.0	-1.0	4.0	0.0333333333333	0.1333333333333	0.0666666666667	35.143538833304774	
3	27.053020083287265	stim	0		0	0.16666667	0.0666666666667	225.0	20.0	0.0333333333333	0.1333333333333	0.0666666666667	35.15708145831013	23.9986613332876
3	27.774002708261833	pulse	0	t		0.16666667	0.0666666666667	225.0	20.0	0.0333333333333	0.1333333333333	0.0666666666667	35.8780640832847	
3	28.15608291659737	response	0	j		0.16666667	0.0666666666667	225.0	20.0	0.0333333333333	0.1333333333333	0.0666666666667	36.260144291620236	
3	28.822137374954764	pulse	0	t		0.16666667	0.0666666666667	225.0	20.0	0.0333333333333	0.1333333333333	0.0666666666667	36.92619874997763	
3	29.61307204159675	pulse	0	t		0.16666667	0.0666666666667	225.0	20.0	0.0333333333333	0.1333333333333	0.0666666666667	37.71713341661962	
3	30.375778833287768	pulse	0	t		0.16666667	0.0666666666667	225.0	20.0	0.0333333333333	0.1333333333333	0.0666666666667	38.479840208310634	
3	31.05979908327572	pulse	0	t		0.16666667	0.0666666666667	225.0	20.0	0.0333333333333	0.1333333333333	0.0666666666667	39.163860458298586	
3	31.43955941661261	response	0	b		0.16666667	0.0666666666667	225.0	20.0	0.0333333333333	0.1333333333333	0.0666666666667	39.543620791635476	
3	31.851710749964695	pulse	0	t		0.16666667	0.0666666666667	225.0	20.0	0.0333333333333	0.1333333333333	0.0666666666667	39.95577212498756	
3	32.53850758326007	pulse	0	t		0.16666667	0.0666666666667	225.0	20.0	0.0333333333333	0.1333333333333	0.0666666666667	40.642568958282936	
3	33.20834333327366	pulse	0	t		0.16666667	0.0666666666667	225.0	20.0	0.0333333333333	0.1333333333333	0.0666666666667	41.312404708296526	
3	33.93270379159367	pulse	0	t		0.16666667	0.0666666666667	225.0	20.0	0.0333333333333	0.1333333333333	0.0666666666667	42.03676516661653	
3	34.58248904161155	pulse	0	t		0.16666667	0.0666666666667	225.0	20.0	0.0333333333333	0.1333333333333	0.0666666666667	42.68655041663442	
3	35.24169554159744	pulse	0	t		0.16666667	0.0666666666667	225.0	20.0	0.0333333333333	0.1333333333333	0.0666666666667	43.3457569166203	
3	36.03015549998963	pulse	0	t		0.16666667	0.0666666666667	225.0	20.0	0.0333333333333	0.1333333333333	0.0666666666667	44.1342168750125	
3	36.893417458282784	pulse	0	t		0.16666667	0.0666666666667	225.0	20.0	0.0333333333333	0.1333333333333	0.0666666666667	44.99747883330565	
3	37.74410966661526	pulse	0	t		0.16666667	0.0666666666667	225.0	20.0	0.0333333333333	0.1333333333333	0.0666666666667	45.848171041638125	
3	38.96615291660419	pulse	0	t		0.16666667	0.0666666666667	225.0	20.0	0.0333333333333	0.1333333333333	0.0666666666667	47.07021429162705	
3	39.824655416596215	pulse	0	t		0.16666667	0.0666666666667	225.0	20.0	0.0333333333333	0.1333333333333	0.0666666666667	47.92871679161908	
3	40.72625449998304	pulse	0	t		0.16666667	0.0666666666667	225.0	20.0	0.0333333333333	0.1333333333333	0.0666666666667	48.83031587500591	
3	41.60920287499903	pulse	0	t		0.16666667	0.0666666666667	225.0	20.0	0.0333333333333	0.1333333333333	0.0666666666667	49.71326425002189	
3	42.57397716661217	pulse	0	t		0.16666667	0.0666666666667	225.0	20.0	0.0333333333333	0.1333333333333	0.0666666666667	50.67803854163503	
3	43.44613424997078	pulse	0	t		0.16666667	0.0666666666667	225.0	20.0	0.0333333333333	0.1333333333333	0.0666666666667	51.55019562499365	
3	44.39317616657354	pulse	0	t		0.16666667	0.0666666666667	225.0	20.0	0.0333333333333	0.1333333333333	0.0666666666667	52.497237541596405	
3	45.18988529162016	pulse	0	t		0.16666667	0.0666666666667	225.0	20.0	0.0333333333333	0.1333333333333	0.0666666666667	53.29394666664302	
3	46.050994916586205	pulse	0	t		0.16666667	0.0666666666667	225.0	20.0	0.0333333333333	0.1333333333333	0.0666666666667	54.15505629160907	
3	46.902996374992654	pulse	0	t		0.16666667	0.0666666666667	225.0	20.0	0.0333333333333	0.1333333333333	0.0666666666667	55.00705775001552	
3	47.75093454157468	pulse	0	t		0.16666667	0.0666666666667	225.0	20.0	0.0333333333333	0.1333333333333	0.0666666666667	55.854995916597545	
3	48.67916962498566	response	0	j		0.16666667	0.0666666666667	225.0	20.0	0.0333333333333	0.1333333333333	0.0666666666667	56.78323100000853	
3	49.50457954162266	response	0	j		0.16666667	0.0666666666667	225.0	20.0	0.0333333333333	0.1333333333333	0.0666666666667	57.60864091664553	
3	50.544147124979645	pulse	0	t		0.16666667	0.0666666666667	225.0	20.0	0.0333333333333	0.1333333333333	0.0666666666667	58.64820850000251	
4	51.051681416574866	stim	0		0	0.16666667	0.0666666666667	315.0	44.0	0.0333333333333	0.1333333333333	0.0666666666667	59.15574279159773	24.000032708398066
4	51.21882091660518	pulse	0	t		0.16666667	0.0666666666667	315.0	44.0	0.0333333333333	0.1333333333333	0.0666666666667	59.32288229162805	
4	52.25566470826743	pulse	0	t		0.16666667	0.0666666666667	315.0	44.0	0.0333333333333	0.1333333333333	0.0666666666667	60.3597260832903	
4	53.079954958288	pulse	0	t		0.16666667	0.0666666666667	315.0	44.0	0.0333333333333	0.1333333333333	0.0666666666667	61.184016333310865	
4	53.812184374954086	pulse	0	t		0.16666667	0.0666666666667	315.0	44.0	0.0333333333333	0.1333333333333	0.0666666666667	61.91624574997695	
4	54.530689916573465	pulse	0	t		0.16666667	0.0666666666667	315.0	44.0	0.0333333333333	0.1333333333333	0.0666666666667	62.63475129159633	
4	55.30052583327051	pulse	0	t		0.16666667	0.0666666666667	315.0	44.0	0.0333333333333	0.1333333333333	0.0666666666667	63.40458720829338	
4	56.056420249980874	pulse	0	t		0.16666667	0.0666666666667	315.0	44.0	0.0333333333333	0.1333333333333	0.0666666666667	64.16048162500374	
4	56.98234362498624	pulse	0	t		0.16666667	0.0666666666667	315.0	44.0	0.0333333333333	0.1333333333333	0.0666666666667	65.08640500000911	
4	57.74881162494421	pulse	0	t		0.16666667	0.0666666666667	315.0	44.0	0.0333333333333	0.1333333333333	0.0666666666667	65.85287299996708	
4	58.0316856665886	response	0	b		0.16666667	0.0666666666667	315.0	44.0	0.0333333333333	0.1333333333333	0.0666666666667	66.13574704161147	
4	61.6579798333114	response	0	b		0.16666667	0.0666666666667	315.0	44.0	0.0333333333333	0.1333333333333	0.0666666666667	69.76204120833427	
4	62.08322566660354	pulse	0	t		0.16666667	0.0666666666667	315.0	44.0	0.0333333333333	0.1333333333333	0.0666666666667	70.1872870416264	
5	75.05171412497293	stim	0		0	-1.0	1.0	-1.0	68.0	0.0333333333333	0.1333333333333	0.0666666666667	83.1557754999958	16.00116425001761
6	91.05287837499054	stim	0		0	0.16666667	0.0666666666667	45.0	84.0	0.0333333333333	0.1333333333333	0.0666666666667	99.15693975001341	22.198288374987897
6	111.46048787498148	response	0	lcommand		0.16666667	0.0666666666667	45.0	84.0	0.0333333333333	0.1333333333333	0.0666666666667	119.56454925000435	
6	111.52936479158234	response	0	tab		0.16666667	0.0666666666667	45.0	84.0	0.0333333333333	0.1333333333333	0.0666666666667	119.6334261666052	
