trial_nr	onset	event_type	phase	response	nr_frames	bar_width	bar_refresh_time	bar_direction	start_time	bar_blank_duration	bar_blank_interval	bg_stim_refresh_time	onset_abs	duration
0	0.1411750316619873	stim	0		0								8.695531129837036	0.28369593620300293
0	0.41685914993286133	response	0	space									8.97121524810791	
1	0.42487096786499023	stim	0		0								8.979227066040039	33.99980020523071
1	34.41065812110901	pulse	0	t									42.96501421928406	
1	34.4246711730957	stim	1		0								42.97902727127075	23.999987840652466
1	36.008273124694824	pulse	1	t									44.56262922286987	
1	37.60830307006836	pulse	1	t									46.16265916824341	
1	39.20822811126709	pulse	1	t									47.76258420944214	
1	40.80822014808655	pulse	1	t									49.3625762462616	
1	42.40824818611145	pulse	1	t									50.9626042842865	
1	44.0081741809845	pulse	1	t									52.562530279159546	
1	45.60811400413513	pulse	1	t									54.16247010231018	
1	47.2081081867218	pulse	1	t									55.76246428489685	
1	48.8082320690155	pulse	1	t									57.36258816719055	
1	50.408071994781494	pulse	1	t									58.96242809295654	
1	52.008087158203125	pulse	1	t									60.562443256378174	
1	53.608062982559204	pulse	1	t									62.16241908073425	
1	55.20813703536987	pulse	1	t									63.76249313354492	
1	56.808091163635254	pulse	1	t									65.3624472618103	
1	58.40818119049072	pulse	1	t									66.96253728866577	
2	58.42465901374817	stim	0		0	0.16666667	0.0666666666667	270.0	24.0	0.0333333333333	0.1333333333333	0.0666666666667	66.97901511192322	23.999927043914795
2	60.00529718399048	pulse	0	t		0.16666667	0.0666666666667	270.0	24.0	0.0333333333333	0.1333333333333	0.0666666666667	68.55965328216553	
2	61.60519003868103	pulse	0	t		0.16666667	0.0666666666667	270.0	24.0	0.0333333333333	0.1333333333333	0.0666666666667	70.15954613685608	
2	62.62474799156189	response	0	r		0.16666667	0.0666666666667	270.0	24.0	0.0333333333333	0.1333333333333	0.0666666666667	71.17910408973694	
2	63.205058097839355	pulse	0	t		0.16666667	0.0666666666667	270.0	24.0	0.0333333333333	0.1333333333333	0.0666666666667	71.7594141960144	
2	64.80503702163696	pulse	0	t		0.16666667	0.0666666666667	270.0	24.0	0.0333333333333	0.1333333333333	0.0666666666667	73.35939311981201	
2	66.40494918823242	pulse	0	t		0.16666667	0.0666666666667	270.0	24.0	0.0333333333333	0.1333333333333	0.0666666666667	74.95930528640747	
2	68.00479316711426	pulse	0	t		0.16666667	0.0666666666667	270.0	24.0	0.0333333333333	0.1333333333333	0.0666666666667	76.5591492652893	
2	68.35763907432556	response	0	r		0.16666667	0.0666666666667	270.0	24.0	0.0333333333333	0.1333333333333	0.0666666666667	76.91199517250061	
2	69.60468912124634	pulse	0	t		0.16666667	0.0666666666667	270.0	24.0	0.0333333333333	0.1333333333333	0.0666666666667	78.15904521942139	
2	71.20464396476746	pulse	0	t		0.16666667	0.0666666666667	270.0	24.0	0.0333333333333	0.1333333333333	0.0666666666667	79.7590000629425	
2	72.5764889717102	response	0	r		0.16666667	0.0666666666667	270.0	24.0	0.0333333333333	0.1333333333333	0.0666666666667	81.13084506988525	
2	72.80438709259033	pulse	0	t		0.16666667	0.0666666666667	270.0	24.0	0.0333333333333	0.1333333333333	0.0666666666667	81.35874319076538	
2	74.40441417694092	pulse	0	t		0.16666667	0.0666666666667	270.0	24.0	0.0333333333333	0.1333333333333	0.0666666666667	82.95877027511597	
2	75.89127707481384	response	0	r		0.16666667	0.0666666666667	270.0	24.0	0.0333333333333	0.1333333333333	0.0666666666667	84.44563317298889	
2	76.00521206855774	pulse	0	t		0.16666667	0.0666666666667	270.0	24.0	0.0333333333333	0.1333333333333	0.0666666666667	84.55956816673279	
2	77.60528707504272	pulse	0	t		0.16666667	0.0666666666667	270.0	24.0	0.0333333333333	0.1333333333333	0.0666666666667	86.15964317321777	
2	79.2051420211792	pulse	0	t		0.16666667	0.0666666666667	270.0	24.0	0.0333333333333	0.1333333333333	0.0666666666667	87.75949811935425	
2	80.80508613586426	pulse	0	t		0.16666667	0.0666666666667	270.0	24.0	0.0333333333333	0.1333333333333	0.0666666666667	89.3594422340393	
2	82.40493702888489	pulse	0	t		0.16666667	0.0666666666667	270.0	24.0	0.0333333333333	0.1333333333333	0.0666666666667	90.95929312705994	
3	82.42458605766296	stim	0		0	0.16666667	0.0666666666667	0.0	48.0	0.0333333333333	0.1333333333333	0.0666666666667	90.97894215583801	24.00812005996704
3	82.84290313720703	response	0	r		0.16666667	0.0666666666667	0.0	48.0	0.0333333333333	0.1333333333333	0.0666666666667	91.39725923538208	
3	84.00492310523987	pulse	0	t		0.16666667	0.0666666666667	0.0	48.0	0.0333333333333	0.1333333333333	0.0666666666667	92.55927920341492	
3	85.6047351360321	pulse	0	t		0.16666667	0.0666666666667	0.0	48.0	0.0333333333333	0.1333333333333	0.0666666666667	94.15909123420715	
3	87.20459699630737	pulse	0	t		0.16666667	0.0666666666667	0.0	48.0	0.0333333333333	0.1333333333333	0.0666666666667	95.75895309448242	
3	88.80455708503723	pulse	0	t		0.16666667	0.0666666666667	0.0	48.0	0.0333333333333	0.1333333333333	0.0666666666667	97.35891318321228	
3	89.02737998962402	response	0	r		0.16666667	0.0666666666667	0.0	48.0	0.0333333333333	0.1333333333333	0.0666666666667	97.58173608779907	
3	90.40446901321411	pulse	0	t		0.16666667	0.0666666666667	0.0	48.0	0.0333333333333	0.1333333333333	0.0666666666667	98.95882511138916	
3	92.00533199310303	pulse	0	t		0.16666667	0.0666666666667	0.0	48.0	0.0333333333333	0.1333333333333	0.0666666666667	100.55968809127808	
3	93.2492561340332	response	0	r		0.16666667	0.0666666666667	0.0	48.0	0.0333333333333	0.1333333333333	0.0666666666667	101.80361223220825	
3	93.60519099235535	pulse	0	t		0.16666667	0.0666666666667	0.0	48.0	0.0333333333333	0.1333333333333	0.0666666666667	102.1595470905304	
3	95.20519709587097	pulse	0	t		0.16666667	0.0666666666667	0.0	48.0	0.0333333333333	0.1333333333333	0.0666666666667	103.75955319404602	
3	96.80505514144897	pulse	0	t		0.16666667	0.0666666666667	0.0	48.0	0.0333333333333	0.1333333333333	0.0666666666667	105.35941123962402	
3	98.40496301651001	pulse	0	t		0.16666667	0.0666666666667	0.0	48.0	0.0333333333333	0.1333333333333	0.0666666666667	106.95931911468506	
3	99.34692215919495	response	0	r		0.16666667	0.0666666666667	0.0	48.0	0.0333333333333	0.1333333333333	0.0666666666667	107.90127825737	
3	100.00493216514587	pulse	0	t		0.16666667	0.0666666666667	0.0	48.0	0.0333333333333	0.1333333333333	0.0666666666667	108.55928826332092	
3	101.60473418235779	pulse	0	t		0.16666667	0.0666666666667	0.0	48.0	0.0333333333333	0.1333333333333	0.0666666666667	110.15909028053284	
3	102.9888231754303	response	0	r		0.16666667	0.0666666666667	0.0	48.0	0.0333333333333	0.1333333333333	0.0666666666667	111.54317927360535	
3	103.20461511611938	pulse	0	t		0.16666667	0.0666666666667	0.0	48.0	0.0333333333333	0.1333333333333	0.0666666666667	111.75897121429443	
3	104.80460119247437	pulse	0	t		0.16666667	0.0666666666667	0.0	48.0	0.0333333333333	0.1333333333333	0.0666666666667	113.35895729064941	
3	106.00252604484558	response	0	r		0.16666667	0.0666666666667	0.0	48.0	0.0333333333333	0.1333333333333	0.0666666666667	114.55688214302063	
3	106.40442299842834	pulse	0	t		0.16666667	0.0666666666667	0.0	48.0	0.0333333333333	0.1333333333333	0.0666666666667	114.9587790966034	
4	106.43270611763	stim	0		0	-1.0	1.0	-1.0	72.0	0.0333333333333	0.1333333333333	0.0666666666667	114.98706221580505	15.999868869781494
4	108.00784111022949	pulse	0	t		-1.0	1.0	-1.0	72.0	0.0333333333333	0.1333333333333	0.0666666666667	116.56219720840454	
4	109.6079170703888	pulse	0	t		-1.0	1.0	-1.0	72.0	0.0333333333333	0.1333333333333	0.0666666666667	118.16227316856384	
4	111.20795512199402	pulse	0	t		-1.0	1.0	-1.0	72.0	0.0333333333333	0.1333333333333	0.0666666666667	119.76231122016907	
4	112.80786514282227	pulse	0	t		-1.0	1.0	-1.0	72.0	0.0333333333333	0.1333333333333	0.0666666666667	121.36222124099731	
4	114.40795111656189	pulse	0	t		-1.0	1.0	-1.0	72.0	0.0333333333333	0.1333333333333	0.0666666666667	122.96230721473694	
4	116.00785303115845	pulse	0	t		-1.0	1.0	-1.0	72.0	0.0333333333333	0.1333333333333	0.0666666666667	124.5622091293335	
4	117.60789108276367	pulse	0	t		-1.0	1.0	-1.0	72.0	0.0333333333333	0.1333333333333	0.0666666666667	126.16224718093872	
4	119.20783996582031	pulse	0	t		-1.0	1.0	-1.0	72.0	0.0333333333333	0.1333333333333	0.0666666666667	127.76219606399536	
4	120.80787205696106	pulse	0	t		-1.0	1.0	-1.0	72.0	0.0333333333333	0.1333333333333	0.0666666666667	129.3622281551361	
4	122.40781617164612	pulse	0	t		-1.0	1.0	-1.0	72.0	0.0333333333333	0.1333333333333	0.0666666666667	130.96217226982117	
5	122.4325749874115	stim	0		0	0.16666667	0.0666666666667	90.0	88.0	0.0333333333333	0.1333333333333	0.0666666666667	130.98693108558655	23.99989104270935
5	122.63843297958374	response	0	r		0.16666667	0.0666666666667	90.0	88.0	0.0333333333333	0.1333333333333	0.0666666666667	131.1927890777588	
5	124.00544309616089	pulse	0	t		0.16666667	0.0666666666667	90.0	88.0	0.0333333333333	0.1333333333333	0.0666666666667	132.55979919433594	
5	125.60535407066345	pulse	0	t		0.16666667	0.0666666666667	90.0	88.0	0.0333333333333	0.1333333333333	0.0666666666667	134.1597101688385	
5	127.20520806312561	pulse	0	t		0.16666667	0.0666666666667	90.0	88.0	0.0333333333333	0.1333333333333	0.0666666666667	135.75956416130066	
5	128.8050730228424	pulse	0	t		0.16666667	0.0666666666667	90.0	88.0	0.0333333333333	0.1333333333333	0.0666666666667	137.35942912101746	
5	130.40502309799194	pulse	0	t		0.16666667	0.0666666666667	90.0	88.0	0.0333333333333	0.1333333333333	0.0666666666667	138.959379196167	
5	130.70988416671753	response	0	r		0.16666667	0.0666666666667	90.0	88.0	0.0333333333333	0.1333333333333	0.0666666666667	139.26424026489258	
5	132.00490498542786	pulse	0	t		0.16666667	0.0666666666667	90.0	88.0	0.0333333333333	0.1333333333333	0.0666666666667	140.5592610836029	
5	133.60480403900146	pulse	0	t		0.16666667	0.0666666666667	90.0	88.0	0.0333333333333	0.1333333333333	0.0666666666667	142.1591601371765	
5	133.7056441307068	response	0	r		0.16666667	0.0666666666667	90.0	88.0	0.0333333333333	0.1333333333333	0.0666666666667	142.26000022888184	
5	135.2046401500702	pulse	0	t		0.16666667	0.0666666666667	90.0	88.0	0.0333333333333	0.1333333333333	0.0666666666667	143.75899624824524	
5	135.378573179245	response	0	r		0.16666667	0.0666666666667	90.0	88.0	0.0333333333333	0.1333333333333	0.0666666666667	143.93292927742004	
5	136.80457997322083	pulse	0	t		0.16666667	0.0666666666667	90.0	88.0	0.0333333333333	0.1333333333333	0.0666666666667	145.35893607139587	
5	138.40454697608948	pulse	0	t		0.16666667	0.0666666666667	90.0	88.0	0.0333333333333	0.1333333333333	0.0666666666667	146.95890307426453	
5	139.72348308563232	response	0	r		0.16666667	0.0666666666667	90.0	88.0	0.0333333333333	0.1333333333333	0.0666666666667	148.27783918380737	
5	140.00543117523193	pulse	0	t		0.16666667	0.0666666666667	90.0	88.0	0.0333333333333	0.1333333333333	0.0666666666667	148.55978727340698	
5	141.60535717010498	pulse	0	t		0.16666667	0.0666666666667	90.0	88.0	0.0333333333333	0.1333333333333	0.0666666666667	150.15971326828003	
5	143.2052731513977	pulse	0	t		0.16666667	0.0666666666667	90.0	88.0	0.0333333333333	0.1333333333333	0.0666666666667	151.75962924957275	
5	144.80519199371338	pulse	0	t		0.16666667	0.0666666666667	90.0	88.0	0.0333333333333	0.1333333333333	0.0666666666667	153.35954809188843	
5	146.40501999855042	pulse	0	t		0.16666667	0.0666666666667	90.0	88.0	0.0333333333333	0.1333333333333	0.0666666666667	154.95937609672546	
6	146.43246603012085	stim	0		0	0.16666667	0.0666666666667	180.0	112.0	0.0333333333333	0.1333333333333	0.0666666666667	154.9868221282959	23.991652011871338
6	148.0049750804901	pulse	0	t		0.16666667	0.0666666666667	180.0	112.0	0.0333333333333	0.1333333333333	0.0666666666667	156.55933117866516	
6	149.60486507415771	pulse	0	t		0.16666667	0.0666666666667	180.0	112.0	0.0333333333333	0.1333333333333	0.0666666666667	158.15922117233276	
6	151.20479702949524	pulse	0	t		0.16666667	0.0666666666667	180.0	112.0	0.0333333333333	0.1333333333333	0.0666666666667	159.7591531276703	
6	152.8046431541443	pulse	0	t		0.16666667	0.0666666666667	180.0	112.0	0.0333333333333	0.1333333333333	0.0666666666667	161.35899925231934	
6	154.40456700325012	pulse	0	t		0.16666667	0.0666666666667	180.0	112.0	0.0333333333333	0.1333333333333	0.0666666666667	162.95892310142517	
6	156.00546312332153	pulse	0	t		0.16666667	0.0666666666667	180.0	112.0	0.0333333333333	0.1333333333333	0.0666666666667	164.55981922149658	
6	156.62035012245178	response	0	r		0.16666667	0.0666666666667	180.0	112.0	0.0333333333333	0.1333333333333	0.0666666666667	165.17470622062683	
6	157.6053500175476	pulse	0	t		0.16666667	0.0666666666667	180.0	112.0	0.0333333333333	0.1333333333333	0.0666666666667	166.15970611572266	
6	159.2052869796753	pulse	0	t		0.16666667	0.0666666666667	180.0	112.0	0.0333333333333	0.1333333333333	0.0666666666667	167.75964307785034	
6	159.42027497291565	response	0	r		0.16666667	0.0666666666667	180.0	112.0	0.0333333333333	0.1333333333333	0.0666666666667	167.9746310710907	
6	160.80521416664124	pulse	0	t		0.16666667	0.0666666666667	180.0	112.0	0.0333333333333	0.1333333333333	0.0666666666667	169.35957026481628	
6	161.29711198806763	response	0	r		0.16666667	0.0666666666667	180.0	112.0	0.0333333333333	0.1333333333333	0.0666666666667	169.85146808624268	
6	162.4051229953766	pulse	0	t		0.16666667	0.0666666666667	180.0	112.0	0.0333333333333	0.1333333333333	0.0666666666667	170.95947909355164	
6	163.95899415016174	response	0	r		0.16666667	0.0666666666667	180.0	112.0	0.0333333333333	0.1333333333333	0.0666666666667	172.5133502483368	
6	164.00478601455688	pulse	0	t		0.16666667	0.0666666666667	180.0	112.0	0.0333333333333	0.1333333333333	0.0666666666667	172.55914211273193	
6	165.60488414764404	pulse	0	t		0.16666667	0.0666666666667	180.0	112.0	0.0333333333333	0.1333333333333	0.0666666666667	174.1592402458191	
6	167.2047460079193	pulse	0	t		0.16666667	0.0666666666667	180.0	112.0	0.0333333333333	0.1333333333333	0.0666666666667	175.75910210609436	
6	168.8046751022339	pulse	0	t		0.16666667	0.0666666666667	180.0	112.0	0.0333333333333	0.1333333333333	0.0666666666667	177.35903120040894	
6	170.40460014343262	pulse	0	t		0.16666667	0.0666666666667	180.0	112.0	0.0333333333333	0.1333333333333	0.0666666666667	178.95895624160767	
7	170.4241180419922	stim	0		0	-1.0	1.0	-1.0	136.0	0.0333333333333	0.1333333333333	0.0666666666667	178.97847414016724	16.008234977722168
7	171.37599897384644	response	0	r		-1.0	1.0	-1.0	136.0	0.0333333333333	0.1333333333333	0.0666666666667	179.93035507202148	
7	172.00757908821106	pulse	0	t		-1.0	1.0	-1.0	136.0	0.0333333333333	0.1333333333333	0.0666666666667	180.5619351863861	
7	173.60752511024475	pulse	0	t		-1.0	1.0	-1.0	136.0	0.0333333333333	0.1333333333333	0.0666666666667	182.1618812084198	
7	174.89089703559875	response	0	r		-1.0	1.0	-1.0	136.0	0.0333333333333	0.1333333333333	0.0666666666667	183.4452531337738	
7	175.20750403404236	pulse	0	t		-1.0	1.0	-1.0	136.0	0.0333333333333	0.1333333333333	0.0666666666667	183.7618601322174	
7	176.8075771331787	pulse	0	t		-1.0	1.0	-1.0	136.0	0.0333333333333	0.1333333333333	0.0666666666667	185.36193323135376	
7	178.40755414962769	pulse	0	t		-1.0	1.0	-1.0	136.0	0.0333333333333	0.1333333333333	0.0666666666667	186.96191024780273	
7	178.56574201583862	response	0	r		-1.0	1.0	-1.0	136.0	0.0333333333333	0.1333333333333	0.0666666666667	187.12009811401367	
7	180.007061958313	pulse	0	t		-1.0	1.0	-1.0	136.0	0.0333333333333	0.1333333333333	0.0666666666667	188.56141805648804	
7	180.91543197631836	response	0	r		-1.0	1.0	-1.0	136.0	0.0333333333333	0.1333333333333	0.0666666666667	189.4697880744934	
7	181.60760402679443	pulse	0	t		-1.0	1.0	-1.0	136.0	0.0333333333333	0.1333333333333	0.0666666666667	190.16196012496948	
7	183.20748710632324	pulse	0	t		-1.0	1.0	-1.0	136.0	0.0333333333333	0.1333333333333	0.0666666666667	191.7618432044983	
7	184.80756402015686	pulse	0	t		-1.0	1.0	-1.0	136.0	0.0333333333333	0.1333333333333	0.0666666666667	193.3619201183319	
7	186.09914302825928	response	0	r		-1.0	1.0	-1.0	136.0	0.0333333333333	0.1333333333333	0.0666666666667	194.65349912643433	
7	186.40740704536438	pulse	0	t		-1.0	1.0	-1.0	136.0	0.0333333333333	0.1333333333333	0.0666666666667	194.96176314353943	
8	186.43235301971436	stim	0		0	-1.0	1.0	-1.0	152.0	0.0333333333333	0.1333333333333	0.0666666666667	194.9867091178894	15.999891996383667
8	188.00761604309082	pulse	0	t		-1.0	1.0	-1.0	152.0	0.0333333333333	0.1333333333333	0.0666666666667	196.56197214126587	
8	189.45749807357788	response	0	r		-1.0	1.0	-1.0	152.0	0.0333333333333	0.1333333333333	0.0666666666667	198.01185417175293	
8	189.6074001789093	pulse	0	t		-1.0	1.0	-1.0	152.0	0.0333333333333	0.1333333333333	0.0666666666667	198.16175627708435	
8	191.20743918418884	pulse	0	t		-1.0	1.0	-1.0	152.0	0.0333333333333	0.1333333333333	0.0666666666667	199.7617952823639	
8	192.43245601654053	response	0	r		-1.0	1.0	-1.0	152.0	0.0333333333333	0.1333333333333	0.0666666666667	200.98681211471558	
8	192.8073971271515	pulse	0	t		-1.0	1.0	-1.0	152.0	0.0333333333333	0.1333333333333	0.0666666666667	201.36175322532654	
8	194.40737509727478	pulse	0	t		-1.0	1.0	-1.0	152.0	0.0333333333333	0.1333333333333	0.0666666666667	202.96173119544983	
8	196.0074770450592	pulse	0	t		-1.0	1.0	-1.0	152.0	0.0333333333333	0.1333333333333	0.0666666666667	204.56183314323425	
8	197.6074640750885	pulse	0	t		-1.0	1.0	-1.0	152.0	0.0333333333333	0.1333333333333	0.0666666666667	206.16182017326355	
8	199.2075080871582	pulse	0	t		-1.0	1.0	-1.0	152.0	0.0333333333333	0.1333333333333	0.0666666666667	207.76186418533325	
8	200.807391166687	pulse	0	t		-1.0	1.0	-1.0	152.0	0.0333333333333	0.1333333333333	0.0666666666667	209.36174726486206	
8	201.96574997901917	response	0	r		-1.0	1.0	-1.0	152.0	0.0333333333333	0.1333333333333	0.0666666666667	210.5201060771942	
8	202.4073371887207	pulse	0	t		-1.0	1.0	-1.0	152.0	0.0333333333333	0.1333333333333	0.0666666666667	210.96169328689575	
9	202.43224501609802	stim	0		0	0.16666667	0.0666666666667	180.0	168.0	0.0333333333333	0.1333333333333	0.0666666666667	210.98660111427307	23.999941110610962
9	204.00559902191162	pulse	0	t		0.16666667	0.0666666666667	180.0	168.0	0.0333333333333	0.1333333333333	0.0666666666667	212.55995512008667	
9	205.60546612739563	pulse	0	t		0.16666667	0.0666666666667	180.0	168.0	0.0333333333333	0.1333333333333	0.0666666666667	214.15982222557068	
9	205.91440200805664	response	0	r		0.16666667	0.0666666666667	180.0	168.0	0.0333333333333	0.1333333333333	0.0666666666667	214.4687581062317	
9	207.2053999900818	pulse	0	t		0.16666667	0.0666666666667	180.0	168.0	0.0333333333333	0.1333333333333	0.0666666666667	215.75975608825684	
9	208.0562801361084	response	0	r		0.16666667	0.0666666666667	180.0	168.0	0.0333333333333	0.1333333333333	0.0666666666667	216.61063623428345	
9	208.8052589893341	pulse	0	t		0.16666667	0.0666666666667	180.0	168.0	0.0333333333333	0.1333333333333	0.0666666666667	217.35961508750916	
9	210.2811620235443	response	0	r		0.16666667	0.0666666666667	180.0	168.0	0.0333333333333	0.1333333333333	0.0666666666667	218.83551812171936	
9	210.40502905845642	pulse	0	t		0.16666667	0.0666666666667	180.0	168.0	0.0333333333333	0.1333333333333	0.0666666666667	218.95938515663147	
9	212.00514817237854	pulse	0	t		0.16666667	0.0666666666667	180.0	168.0	0.0333333333333	0.1333333333333	0.0666666666667	220.5595042705536	
9	213.39893913269043	response	0	r		0.16666667	0.0666666666667	180.0	168.0	0.0333333333333	0.1333333333333	0.0666666666667	221.95329523086548	
9	213.60485696792603	pulse	0	t		0.16666667	0.0666666666667	180.0	168.0	0.0333333333333	0.1333333333333	0.0666666666667	222.15921306610107	
9	215.20484709739685	pulse	0	t		0.16666667	0.0666666666667	180.0	168.0	0.0333333333333	0.1333333333333	0.0666666666667	223.7592031955719	
9	216.80481910705566	pulse	0	t		0.16666667	0.0666666666667	180.0	168.0	0.0333333333333	0.1333333333333	0.0666666666667	225.3591752052307	
9	218.40467309951782	pulse	0	t		0.16666667	0.0666666666667	180.0	168.0	0.0333333333333	0.1333333333333	0.0666666666667	226.95902919769287	
9	220.0055890083313	pulse	0	t		0.16666667	0.0666666666667	180.0	168.0	0.0333333333333	0.1333333333333	0.0666666666667	228.55994510650635	
9	220.31154704093933	response	0	r		0.16666667	0.0666666666667	180.0	168.0	0.0333333333333	0.1333333333333	0.0666666666667	228.86590313911438	
9	221.60547399520874	pulse	0	t		0.16666667	0.0666666666667	180.0	168.0	0.0333333333333	0.1333333333333	0.0666666666667	230.1598300933838	
9	223.20543003082275	pulse	0	t		0.16666667	0.0666666666667	180.0	168.0	0.0333333333333	0.1333333333333	0.0666666666667	231.7597861289978	
9	224.8052589893341	pulse	0	t		0.16666667	0.0666666666667	180.0	168.0	0.0333333333333	0.1333333333333	0.0666666666667	233.35961508750916	
9	226.22415804862976	response	0	r		0.16666667	0.0666666666667	180.0	168.0	0.0333333333333	0.1333333333333	0.0666666666667	234.7785141468048	
9	226.40507316589355	pulse	0	t		0.16666667	0.0666666666667	180.0	168.0	0.0333333333333	0.1333333333333	0.0666666666667	234.9594292640686	
10	226.43218612670898	stim	0		0	0.16666667	0.0666666666667	90.0	192.0	0.0333333333333	0.1333333333333	0.0666666666667	234.98654222488403	23.991530895233154
10	228.00505208969116	pulse	0	t		0.16666667	0.0666666666667	90.0	192.0	0.0333333333333	0.1333333333333	0.0666666666667	236.5594081878662	
10	229.2649121284485	response	0	r		0.16666667	0.0666666666667	90.0	192.0	0.0333333333333	0.1333333333333	0.0666666666667	237.81926822662354	
10	229.60496711730957	pulse	0	t		0.16666667	0.0666666666667	90.0	192.0	0.0333333333333	0.1333333333333	0.0666666666667	238.15932321548462	
10	231.20486307144165	pulse	0	t		0.16666667	0.0666666666667	90.0	192.0	0.0333333333333	0.1333333333333	0.0666666666667	239.7592191696167	
10	232.77281308174133	response	0	r		0.16666667	0.0666666666667	90.0	192.0	0.0333333333333	0.1333333333333	0.0666666666667	241.32716917991638	
10	232.80460596084595	pulse	0	t		0.16666667	0.0666666666667	90.0	192.0	0.0333333333333	0.1333333333333	0.0666666666667	241.358962059021	
10	234.40474009513855	pulse	0	t		0.16666667	0.0666666666667	90.0	192.0	0.0333333333333	0.1333333333333	0.0666666666667	242.9590961933136	
10	236.00562000274658	pulse	0	t		0.16666667	0.0666666666667	90.0	192.0	0.0333333333333	0.1333333333333	0.0666666666667	244.55997610092163	
10	236.20245814323425	response	0	r		0.16666667	0.0666666666667	90.0	192.0	0.0333333333333	0.1333333333333	0.0666666666667	244.7568142414093	
10	237.60554599761963	pulse	0	t		0.16666667	0.0666666666667	90.0	192.0	0.0333333333333	0.1333333333333	0.0666666666667	246.15990209579468	
10	239.20547819137573	pulse	0	t		0.16666667	0.0666666666667	90.0	192.0	0.0333333333333	0.1333333333333	0.0666666666667	247.75983428955078	
10	240.80525612831116	pulse	0	t		0.16666667	0.0666666666667	90.0	192.0	0.0333333333333	0.1333333333333	0.0666666666667	249.3596122264862	
10	242.40516710281372	pulse	0	t		0.16666667	0.0666666666667	90.0	192.0	0.0333333333333	0.1333333333333	0.0666666666667	250.95952320098877	
10	243.0061330795288	response	0	r		0.16666667	0.0666666666667	90.0	192.0	0.0333333333333	0.1333333333333	0.0666666666667	251.56048917770386	
10	244.0050721168518	pulse	0	t		0.16666667	0.0666666666667	90.0	192.0	0.0333333333333	0.1333333333333	0.0666666666667	252.55942821502686	
10	245.60504603385925	pulse	0	t		0.16666667	0.0666666666667	90.0	192.0	0.0333333333333	0.1333333333333	0.0666666666667	254.1594021320343	
10	245.84494709968567	response	0	r		0.16666667	0.0666666666667	90.0	192.0	0.0333333333333	0.1333333333333	0.0666666666667	254.39930319786072	
10	247.20498204231262	pulse	0	t		0.16666667	0.0666666666667	90.0	192.0	0.0333333333333	0.1333333333333	0.0666666666667	255.75933814048767	
10	248.41858196258545	response	0	r		0.16666667	0.0666666666667	90.0	192.0	0.0333333333333	0.1333333333333	0.0666666666667	256.9729380607605	
10	248.80482006072998	pulse	0	t		0.16666667	0.0666666666667	90.0	192.0	0.0333333333333	0.1333333333333	0.0666666666667	257.35917615890503	
10	250.40475606918335	pulse	0	t		0.16666667	0.0666666666667	90.0	192.0	0.0333333333333	0.1333333333333	0.0666666666667	258.9591121673584	
11	250.42371702194214	stim	0		0	-1.0	1.0	-1.0	216.0	0.0333333333333	0.1333333333333	0.0666666666667	258.9780731201172	16.0082790851593
11	252.0072259902954	pulse	0	t		-1.0	1.0	-1.0	216.0	0.0333333333333	0.1333333333333	0.0666666666667	260.56158208847046	
11	252.57559204101562	response	0	r		-1.0	1.0	-1.0	216.0	0.0333333333333	0.1333333333333	0.0666666666667	261.1299481391907	
11	253.60720205307007	pulse	0	t		-1.0	1.0	-1.0	216.0	0.0333333333333	0.1333333333333	0.0666666666667	262.1615581512451	
11	255.20705604553223	pulse	0	t		-1.0	1.0	-1.0	216.0	0.0333333333333	0.1333333333333	0.0666666666667	263.7614121437073	
11	256.80714416503906	pulse	0	t		-1.0	1.0	-1.0	216.0	0.0333333333333	0.1333333333333	0.0666666666667	265.3615002632141	
11	258.4071571826935	pulse	0	t		-1.0	1.0	-1.0	216.0	0.0333333333333	0.1333333333333	0.0666666666667	266.96151328086853	
11	260.0070550441742	pulse	0	t		-1.0	1.0	-1.0	216.0	0.0333333333333	0.1333333333333	0.0666666666667	268.56141114234924	
11	261.60710096359253	pulse	0	t		-1.0	1.0	-1.0	216.0	0.0333333333333	0.1333333333333	0.0666666666667	270.1614570617676	
11	263.2071349620819	pulse	0	t		-1.0	1.0	-1.0	216.0	0.0333333333333	0.1333333333333	0.0666666666667	271.76149106025696	
11	264.8071360588074	pulse	0	t		-1.0	1.0	-1.0	216.0	0.0333333333333	0.1333333333333	0.0666666666667	273.3614921569824	
11	266.290381193161	response	0	r		-1.0	1.0	-1.0	216.0	0.0333333333333	0.1333333333333	0.0666666666667	274.84473729133606	
11	266.40700101852417	pulse	0	t		-1.0	1.0	-1.0	216.0	0.0333333333333	0.1333333333333	0.0666666666667	274.9613571166992	
12	266.43199610710144	stim	0		0	0.16666667	0.0666666666667	0.0	232.0	0.0333333333333	0.1333333333333	0.0666666666667	274.9863522052765	23.991469860076904
12	268.0056881904602	pulse	0	t		0.16666667	0.0666666666667	0.0	232.0	0.0333333333333	0.1333333333333	0.0666666666667	276.56004428863525	
12	268.363557100296	response	0	r		0.16666667	0.0666666666667	0.0	232.0	0.0333333333333	0.1333333333333	0.0666666666667	276.91791319847107	
12	269.6055209636688	pulse	0	t		0.16666667	0.0666666666667	0.0	232.0	0.0333333333333	0.1333333333333	0.0666666666667	278.1598770618439	
12	270.4974901676178	response	0	r		0.16666667	0.0666666666667	0.0	232.0	0.0333333333333	0.1333333333333	0.0666666666667	279.05184626579285	
12	271.2054181098938	pulse	0	t		0.16666667	0.0666666666667	0.0	232.0	0.0333333333333	0.1333333333333	0.0666666666667	279.75977420806885	
12	272.8053500652313	pulse	0	t		0.16666667	0.0666666666667	0.0	232.0	0.0333333333333	0.1333333333333	0.0666666666667	281.3597061634064	
12	274.40530800819397	pulse	0	t		0.16666667	0.0666666666667	0.0	232.0	0.0333333333333	0.1333333333333	0.0666666666667	282.959664106369	
12	275.6161971092224	response	0	r		0.16666667	0.0666666666667	0.0	232.0	0.0333333333333	0.1333333333333	0.0666666666667	284.17055320739746	
12	276.00516510009766	pulse	0	t		0.16666667	0.0666666666667	0.0	232.0	0.0333333333333	0.1333333333333	0.0666666666667	284.5595211982727	
12	277.6050851345062	pulse	0	t		0.16666667	0.0666666666667	0.0	232.0	0.0333333333333	0.1333333333333	0.0666666666667	286.1594412326813	
12	279.2050070762634	pulse	0	t		0.16666667	0.0666666666667	0.0	232.0	0.0333333333333	0.1333333333333	0.0666666666667	287.7593631744385	
12	280.7989761829376	response	0	r		0.16666667	0.0666666666667	0.0	232.0	0.0333333333333	0.1333333333333	0.0666666666667	289.35333228111267	
12	280.8046700954437	pulse	0	t		0.16666667	0.0666666666667	0.0	232.0	0.0333333333333	0.1333333333333	0.0666666666667	289.3590261936188	
12	282.4047930240631	pulse	0	t		0.16666667	0.0666666666667	0.0	232.0	0.0333333333333	0.1333333333333	0.0666666666667	290.95914912223816	
12	284.0056731700897	pulse	0	t		0.16666667	0.0666666666667	0.0	232.0	0.0333333333333	0.1333333333333	0.0666666666667	292.56002926826477	
12	284.36556911468506	response	0	r		0.16666667	0.0666666666667	0.0	232.0	0.0333333333333	0.1333333333333	0.0666666666667	292.9199252128601	
12	285.60562896728516	pulse	0	t		0.16666667	0.0666666666667	0.0	232.0	0.0333333333333	0.1333333333333	0.0666666666667	294.1599850654602	
12	287.2054920196533	pulse	0	t		0.16666667	0.0666666666667	0.0	232.0	0.0333333333333	0.1333333333333	0.0666666666667	295.75984811782837	
12	288.22849011421204	response	0	r		0.16666667	0.0666666666667	0.0	232.0	0.0333333333333	0.1333333333333	0.0666666666667	296.7828462123871	
12	288.805330991745	pulse	0	t		0.16666667	0.0666666666667	0.0	232.0	0.0333333333333	0.1333333333333	0.0666666666667	297.35968708992004	
12	290.4052801132202	pulse	0	t		0.16666667	0.0666666666667	0.0	232.0	0.0333333333333	0.1333333333333	0.0666666666667	298.95963621139526	
13	290.42346596717834	stim	0		0	0.16666667	0.0666666666667	270.0	256.0	0.0333333333333	0.1333333333333	0.0666666666667	298.9778220653534	23.999891996383667
13	291.42326307296753	response	0	r		0.16666667	0.0666666666667	270.0	256.0	0.0333333333333	0.1333333333333	0.0666666666667	299.9776191711426	
13	292.0052239894867	pulse	0	t		0.16666667	0.0666666666667	270.0	256.0	0.0333333333333	0.1333333333333	0.0666666666667	300.55958008766174	
13	293.60520195961	pulse	0	t		0.16666667	0.0666666666667	270.0	256.0	0.0333333333333	0.1333333333333	0.0666666666667	302.15955805778503	
13	295.20500206947327	pulse	0	t		0.16666667	0.0666666666667	270.0	256.0	0.0333333333333	0.1333333333333	0.0666666666667	303.7593581676483	
13	296.80484199523926	pulse	0	t		0.16666667	0.0666666666667	270.0	256.0	0.0333333333333	0.1333333333333	0.0666666666667	305.3591980934143	
13	297.0278251171112	response	0	r		0.16666667	0.0666666666667	270.0	256.0	0.0333333333333	0.1333333333333	0.0666666666667	305.58218121528625	
13	298.4047141075134	pulse	0	t		0.16666667	0.0666666666667	270.0	256.0	0.0333333333333	0.1333333333333	0.0666666666667	306.9590702056885	
13	300.00575399398804	pulse	0	t		0.16666667	0.0666666666667	270.0	256.0	0.0333333333333	0.1333333333333	0.0666666666667	308.5601100921631	
13	301.6055750846863	pulse	0	t		0.16666667	0.0666666666667	270.0	256.0	0.0333333333333	0.1333333333333	0.0666666666667	310.1599311828613	
13	302.55688309669495	response	0	r		0.16666667	0.0666666666667	270.0	256.0	0.0333333333333	0.1333333333333	0.0666666666667	311.11123919487	
13	303.205530166626	pulse	0	t		0.16666667	0.0666666666667	270.0	256.0	0.0333333333333	0.1333333333333	0.0666666666667	311.759886264801	
13	304.27245903015137	response	0	r		0.16666667	0.0666666666667	270.0	256.0	0.0333333333333	0.1333333333333	0.0666666666667	312.8268151283264	
13	304.80544805526733	pulse	0	t		0.16666667	0.0666666666667	270.0	256.0	0.0333333333333	0.1333333333333	0.0666666666667	313.3598041534424	
13	306.40530014038086	pulse	0	t		0.16666667	0.0666666666667	270.0	256.0	0.0333333333333	0.1333333333333	0.0666666666667	314.9596562385559	
13	308.0052649974823	pulse	0	t		0.16666667	0.0666666666667	270.0	256.0	0.0333333333333	0.1333333333333	0.0666666666667	316.55962109565735	
13	308.3721661567688	response	0	r		0.16666667	0.0666666666667	270.0	256.0	0.0333333333333	0.1333333333333	0.0666666666667	316.92652225494385	
13	309.6051151752472	pulse	0	t		0.16666667	0.0666666666667	270.0	256.0	0.0333333333333	0.1333333333333	0.0666666666667	318.15947127342224	
13	311.204980134964	pulse	0	t		0.16666667	0.0666666666667	270.0	256.0	0.0333333333333	0.1333333333333	0.0666666666667	319.75933623313904	
13	312.8049011230469	pulse	0	t		0.16666667	0.0666666666667	270.0	256.0	0.0333333333333	0.1333333333333	0.0666666666667	321.3592572212219	
13	314.4048399925232	pulse	0	t		0.16666667	0.0666666666667	270.0	256.0	0.0333333333333	0.1333333333333	0.0666666666667	322.95919609069824	
14	314.423357963562	stim	0		0								322.97771406173706	24.36662220954895
14	316.0068120956421	pulse	0	t									324.56116819381714	
14	317.606810092926	pulse	0	t									326.1611661911011	
14	319.2066910266876	pulse	0	t									327.76104712486267	
14	320.8069751262665	pulse	0	t									329.3613312244415	
14	322.4069321155548	pulse	0	t									330.96128821372986	
14	324.0068521499634	pulse	0	t									332.5612082481384	
14	325.60682010650635	pulse	0	t									334.1611762046814	
14	327.20681500434875	pulse	0	t									335.7611711025238	
14	328.80681014060974	pulse	0	t									337.3611662387848	
14	330.4067471027374	pulse	0	t									338.9611032009125	
14	332.0068221092224	pulse	0	t									340.56117820739746	
14	333.60671210289	pulse	0	t									342.16106820106506	
14	335.2067849636078	pulse	0	t									343.76114106178284	
14	336.8067879676819	pulse	0	t									345.36114406585693	
14	338.40680408477783	pulse	0	t									346.9611601829529	
