trial_nr	onset	event_type	phase	response	nr_frames	bar_width	bar_refresh_time	bar_direction	start_time	bar_blank_duration	bar_blank_interval	bg_stim_refresh_time	onset_abs	duration
0	0.14165592193603516	stim	0		0								318.82628107070923	2.749871015548706
0	2.8836638927459717	response	0	space									321.56828904151917	
1	2.891526937484741	stim	0		0								321.57615208625793	40.499788999557495
1	43.37959694862366	pulse	0	t									362.06422209739685	
1	43.391315937042236	stim	1		0								362.07594108581543	24.008219003677368
1	44.97482085227966	pulse	1	t									363.65944600105286	
1	46.57479500770569	pulse	1	t									365.2594201564789	
1	48.17479181289673	pulse	1	t									366.8594169616699	
1	49.7748339176178	pulse	1	t									368.459459066391	
1	51.37477087974548	pulse	1	t									370.0593960285187	
1	52.97479200363159	pulse	1	t									371.6594171524048	
1	54.574689865112305	pulse	1	t									373.2593150138855	
1	56.174728870391846	pulse	1	t									374.85935401916504	
1	57.774791955947876	pulse	1	t									376.45941710472107	
1	59.37471294403076	pulse	1	t									378.05933809280396	
1	60.974780797958374	pulse	1	t									379.65940594673157	
1	62.57479286193848	pulse	1	t									381.25941801071167	
1	64.17469382286072	pulse	1	t									382.8593189716339	
1	65.77476382255554	pulse	1	t									384.45938897132874	
1	67.3747398853302	pulse	1	t									386.0593650341034	
2	67.3995349407196	stim	0		0	0.16666667	0.0666666666667	270.0	24.0	0.0333333333333	0.1333333333333	0.0666666666667	386.0841600894928	23.99117684364319
2	68.9748477935791	pulse	0	t		0.16666667	0.0666666666667	270.0	24.0	0.0333333333333	0.1333333333333	0.0666666666667	387.6594729423523	
2	70.5747058391571	pulse	0	t		0.16666667	0.0666666666667	270.0	24.0	0.0333333333333	0.1333333333333	0.0666666666667	389.2593309879303	
2	72.17454099655151	pulse	0	t		0.16666667	0.0666666666667	270.0	24.0	0.0333333333333	0.1333333333333	0.0666666666667	390.8591661453247	
2	73.77445888519287	pulse	0	t		0.16666667	0.0666666666667	270.0	24.0	0.0333333333333	0.1333333333333	0.0666666666667	392.45908403396606	
2	75.37451791763306	pulse	0	t		0.16666667	0.0666666666667	270.0	24.0	0.0333333333333	0.1333333333333	0.0666666666667	394.05914306640625	
2	75.5246639251709	response	0	r		0.16666667	0.0666666666667	270.0	24.0	0.0333333333333	0.1333333333333	0.0666666666667	394.2092890739441	
2	76.97433495521545	pulse	0	t		0.16666667	0.0666666666667	270.0	24.0	0.0333333333333	0.1333333333333	0.0666666666667	395.65896010398865	
2	78.57417583465576	pulse	0	t		0.16666667	0.0666666666667	270.0	24.0	0.0333333333333	0.1333333333333	0.0666666666667	397.25880098342896	
2	80.17406487464905	pulse	0	t		0.16666667	0.0666666666667	270.0	24.0	0.0333333333333	0.1333333333333	0.0666666666667	398.85869002342224	
2	80.38765978813171	response	0	r		0.16666667	0.0666666666667	270.0	24.0	0.0333333333333	0.1333333333333	0.0666666666667	399.0722849369049	
2	81.77397298812866	pulse	0	t		0.16666667	0.0666666666667	270.0	24.0	0.0333333333333	0.1333333333333	0.0666666666667	400.45859813690186	
2	83.37384986877441	pulse	0	t		0.16666667	0.0666666666667	270.0	24.0	0.0333333333333	0.1333333333333	0.0666666666667	402.0584750175476	
2	83.81084895133972	response	0	r		0.16666667	0.0666666666667	270.0	24.0	0.0333333333333	0.1333333333333	0.0666666666667	402.4954741001129	
2	84.97474694252014	pulse	0	t		0.16666667	0.0666666666667	270.0	24.0	0.0333333333333	0.1333333333333	0.0666666666667	403.65937209129333	
2	86.16568493843079	response	0	r		0.16666667	0.0666666666667	270.0	24.0	0.0333333333333	0.1333333333333	0.0666666666667	404.850310087204	
2	86.57460689544678	pulse	0	t		0.16666667	0.0666666666667	270.0	24.0	0.0333333333333	0.1333333333333	0.0666666666667	405.25923204421997	
2	88.17460799217224	pulse	0	t		0.16666667	0.0666666666667	270.0	24.0	0.0333333333333	0.1333333333333	0.0666666666667	406.85923314094543	
2	89.77450680732727	pulse	0	t		0.16666667	0.0666666666667	270.0	24.0	0.0333333333333	0.1333333333333	0.0666666666667	408.45913195610046	
2	91.01241898536682	response	0	r		0.16666667	0.0666666666667	270.0	24.0	0.0333333333333	0.1333333333333	0.0666666666667	409.69704413414	
2	91.37437796592712	pulse	0	t		0.16666667	0.0666666666667	270.0	24.0	0.0333333333333	0.1333333333333	0.0666666666667	410.0590031147003	
3	91.3907117843628	stim	0		0	0.16666667	0.0666666666667	0.0	48.0	0.0333333333333	0.1333333333333	0.0666666666667	410.075336933136	24.00031805038452
3	92.97434592247009	pulse	0	t		0.16666667	0.0666666666667	0.0	48.0	0.0333333333333	0.1333333333333	0.0666666666667	411.6589710712433	
3	93.86932492256165	response	0	r		0.16666667	0.0666666666667	0.0	48.0	0.0333333333333	0.1333333333333	0.0666666666667	412.55395007133484	
3	94.57426190376282	pulse	0	t		0.16666667	0.0666666666667	0.0	48.0	0.0333333333333	0.1333333333333	0.0666666666667	413.258887052536	
3	96.17410778999329	pulse	0	t		0.16666667	0.0666666666667	0.0	48.0	0.0333333333333	0.1333333333333	0.0666666666667	414.8587329387665	
3	97.46910977363586	response	0	r		0.16666667	0.0666666666667	0.0	48.0	0.0333333333333	0.1333333333333	0.0666666666667	416.15373492240906	
3	97.77401685714722	pulse	0	t		0.16666667	0.0666666666667	0.0	48.0	0.0333333333333	0.1333333333333	0.0666666666667	416.4586420059204	
3	99.37394881248474	pulse	0	t		0.16666667	0.0666666666667	0.0	48.0	0.0333333333333	0.1333333333333	0.0666666666667	418.05857396125793	
3	100.97476387023926	pulse	0	t		0.16666667	0.0666666666667	0.0	48.0	0.0333333333333	0.1333333333333	0.0666666666667	419.65938901901245	
3	102.37579798698425	response	0	r		0.16666667	0.0666666666667	0.0	48.0	0.0333333333333	0.1333333333333	0.0666666666667	421.06042313575745	
3	102.57468390464783	pulse	0	t		0.16666667	0.0666666666667	0.0	48.0	0.0333333333333	0.1333333333333	0.0666666666667	421.259309053421	
3	104.17464590072632	pulse	0	t		0.16666667	0.0666666666667	0.0	48.0	0.0333333333333	0.1333333333333	0.0666666666667	422.8592710494995	
3	104.41354894638062	response	0	r		0.16666667	0.0666666666667	0.0	48.0	0.0333333333333	0.1333333333333	0.0666666666667	423.0981740951538	
3	105.7745258808136	pulse	0	t		0.16666667	0.0666666666667	0.0	48.0	0.0333333333333	0.1333333333333	0.0666666666667	424.4591510295868	
3	107.07849287986755	response	0	r		0.16666667	0.0666666666667	0.0	48.0	0.0333333333333	0.1333333333333	0.0666666666667	425.76311802864075	
3	107.37438988685608	pulse	0	t		0.16666667	0.0666666666667	0.0	48.0	0.0333333333333	0.1333333333333	0.0666666666667	426.0590150356293	
3	108.97438883781433	pulse	0	t		0.16666667	0.0666666666667	0.0	48.0	0.0333333333333	0.1333333333333	0.0666666666667	427.6590139865875	
3	110.57427787780762	pulse	0	t		0.16666667	0.0666666666667	0.0	48.0	0.0333333333333	0.1333333333333	0.0666666666667	429.2589030265808	
3	112.17425584793091	pulse	0	t		0.16666667	0.0666666666667	0.0	48.0	0.0333333333333	0.1333333333333	0.0666666666667	430.8588809967041	
3	113.7740409374237	pulse	0	t		0.16666667	0.0666666666667	0.0	48.0	0.0333333333333	0.1333333333333	0.0666666666667	432.4586660861969	
3	115.37391185760498	pulse	0	t		0.16666667	0.0666666666667	0.0	48.0	0.0333333333333	0.1333333333333	0.0666666666667	434.0585370063782	
4	115.39102983474731	stim	0		0	-1.0	1.0	-1.0	72.0	0.0333333333333	0.1333333333333	0.0666666666667	434.0756549835205	16.00826406478882
4	116.29955387115479	response	0	r		-1.0	1.0	-1.0	72.0	0.0333333333333	0.1333333333333	0.0666666666667	434.984179019928	
4	116.97631883621216	pulse	0	t		-1.0	1.0	-1.0	72.0	0.0333333333333	0.1333333333333	0.0666666666667	435.66094398498535	
4	118.57625579833984	pulse	0	t		-1.0	1.0	-1.0	72.0	0.0333333333333	0.1333333333333	0.0666666666667	437.26088094711304	
4	120.17450189590454	pulse	0	t		-1.0	1.0	-1.0	72.0	0.0333333333333	0.1333333333333	0.0666666666667	438.85912704467773	
4	121.1578049659729	response	0	r		-1.0	1.0	-1.0	72.0	0.0333333333333	0.1333333333333	0.0666666666667	439.8424301147461	
4	121.77451300621033	pulse	0	t		-1.0	1.0	-1.0	72.0	0.0333333333333	0.1333333333333	0.0666666666667	440.4591381549835	
4	123.37453699111938	pulse	0	t		-1.0	1.0	-1.0	72.0	0.0333333333333	0.1333333333333	0.0666666666667	442.0591621398926	
4	124.55780482292175	response	0	r		-1.0	1.0	-1.0	72.0	0.0333333333333	0.1333333333333	0.0666666666667	443.24242997169495	
4	124.97445678710938	pulse	0	t		-1.0	1.0	-1.0	72.0	0.0333333333333	0.1333333333333	0.0666666666667	443.65908193588257	
4	126.57445693016052	pulse	0	t		-1.0	1.0	-1.0	72.0	0.0333333333333	0.1333333333333	0.0666666666667	445.2590820789337	
4	128.17448687553406	pulse	0	t		-1.0	1.0	-1.0	72.0	0.0333333333333	0.1333333333333	0.0666666666667	446.85911202430725	
4	128.86784887313843	response	0	r		-1.0	1.0	-1.0	72.0	0.0333333333333	0.1333333333333	0.0666666666667	447.5524740219116	
4	129.774475812912	pulse	0	t		-1.0	1.0	-1.0	72.0	0.0333333333333	0.1333333333333	0.0666666666667	448.4591009616852	
4	131.37439680099487	pulse	0	t		-1.0	1.0	-1.0	72.0	0.0333333333333	0.1333333333333	0.0666666666667	450.05902194976807	
5	131.39929389953613	stim	0		0	0.16666667	0.0666666666667	90.0	88.0	0.0333333333333	0.1333333333333	0.0666666666667	450.0839190483093	23.999855041503906
5	131.95797300338745	response	0	r		0.16666667	0.0666666666667	90.0	88.0	0.0333333333333	0.1333333333333	0.0666666666667	450.64259815216064	
5	132.9748499393463	pulse	0	t		0.16666667	0.0666666666667	90.0	88.0	0.0333333333333	0.1333333333333	0.0666666666667	451.6594750881195	
5	134.57479882240295	pulse	0	t		0.16666667	0.0666666666667	90.0	88.0	0.0333333333333	0.1333333333333	0.0666666666667	453.25942397117615	
5	135.65792989730835	response	0	r		0.16666667	0.0666666666667	90.0	88.0	0.0333333333333	0.1333333333333	0.0666666666667	454.34255504608154	
5	136.17472100257874	pulse	0	t		0.16666667	0.0666666666667	90.0	88.0	0.0333333333333	0.1333333333333	0.0666666666667	454.85934615135193	
5	137.77473378181458	pulse	0	t		0.16666667	0.0666666666667	90.0	88.0	0.0333333333333	0.1333333333333	0.0666666666667	456.45935893058777	
5	139.3746738433838	pulse	0	t		0.16666667	0.0666666666667	90.0	88.0	0.0333333333333	0.1333333333333	0.0666666666667	458.059298992157	
5	140.97449398040771	pulse	0	t		0.16666667	0.0666666666667	90.0	88.0	0.0333333333333	0.1333333333333	0.0666666666667	459.6591191291809	
5	142.57425594329834	pulse	0	t		0.16666667	0.0666666666667	90.0	88.0	0.0333333333333	0.1333333333333	0.0666666666667	461.25888109207153	
5	144.17419600486755	pulse	0	t		0.16666667	0.0666666666667	90.0	88.0	0.0333333333333	0.1333333333333	0.0666666666667	462.85882115364075	
5	145.774080991745	pulse	0	t		0.16666667	0.0666666666667	90.0	88.0	0.0333333333333	0.1333333333333	0.0666666666667	464.4587061405182	
5	147.37399983406067	pulse	0	t		0.16666667	0.0666666666667	90.0	88.0	0.0333333333333	0.1333333333333	0.0666666666667	466.05862498283386	
5	148.97387099266052	pulse	0	t		0.16666667	0.0666666666667	90.0	88.0	0.0333333333333	0.1333333333333	0.0666666666667	467.6584961414337	
5	150.0838339328766	response	0	r		0.16666667	0.0666666666667	90.0	88.0	0.0333333333333	0.1333333333333	0.0666666666667	468.7684590816498	
5	150.57471680641174	pulse	0	t		0.16666667	0.0666666666667	90.0	88.0	0.0333333333333	0.1333333333333	0.0666666666667	469.25934195518494	
5	152.17467093467712	pulse	0	t		0.16666667	0.0666666666667	90.0	88.0	0.0333333333333	0.1333333333333	0.0666666666667	470.8592960834503	
5	153.7745978832245	pulse	0	t		0.16666667	0.0666666666667	90.0	88.0	0.0333333333333	0.1333333333333	0.0666666666667	472.4592230319977	
5	155.37443900108337	pulse	0	t		0.16666667	0.0666666666667	90.0	88.0	0.0333333333333	0.1333333333333	0.0666666666667	474.05906414985657	
6	155.39914894104004	stim	0		0	0.16666667	0.0666666666667	180.0	112.0	0.0333333333333	0.1333333333333	0.0666666666667	474.08377408981323	23.999902963638306
6	156.6173539161682	response	0	r		0.16666667	0.0666666666667	180.0	112.0	0.0333333333333	0.1333333333333	0.0666666666667	475.3019790649414	
6	156.97429084777832	pulse	0	t		0.16666667	0.0666666666667	180.0	112.0	0.0333333333333	0.1333333333333	0.0666666666667	475.6589159965515	
6	158.5743489265442	pulse	0	t		0.16666667	0.0666666666667	180.0	112.0	0.0333333333333	0.1333333333333	0.0666666666667	477.2589740753174	
6	160.1741988658905	pulse	0	t		0.16666667	0.0666666666667	180.0	112.0	0.0333333333333	0.1333333333333	0.0666666666667	478.8588240146637	
6	161.72014093399048	response	0	r		0.16666667	0.0666666666667	180.0	112.0	0.0333333333333	0.1333333333333	0.0666666666667	480.4047660827637	
6	161.77393698692322	pulse	0	t		0.16666667	0.0666666666667	180.0	112.0	0.0333333333333	0.1333333333333	0.0666666666667	480.4585621356964	
6	163.37399792671204	pulse	0	t		0.16666667	0.0666666666667	180.0	112.0	0.0333333333333	0.1333333333333	0.0666666666667	482.05862307548523	
6	164.50793886184692	response	0	r		0.16666667	0.0666666666667	180.0	112.0	0.0333333333333	0.1333333333333	0.0666666666667	483.1925640106201	
6	164.97486281394958	pulse	0	t		0.16666667	0.0666666666667	180.0	112.0	0.0333333333333	0.1333333333333	0.0666666666667	483.6594879627228	
6	166.57485389709473	pulse	0	t		0.16666667	0.0666666666667	180.0	112.0	0.0333333333333	0.1333333333333	0.0666666666667	485.2594790458679	
6	166.83967399597168	response	0	r		0.16666667	0.0666666666667	180.0	112.0	0.0333333333333	0.1333333333333	0.0666666666667	485.5242991447449	
6	168.17470979690552	pulse	0	t		0.16666667	0.0666666666667	180.0	112.0	0.0333333333333	0.1333333333333	0.0666666666667	486.8593349456787	
6	169.1495988368988	response	0	r		0.16666667	0.0666666666667	180.0	112.0	0.0333333333333	0.1333333333333	0.0666666666667	487.834223985672	
6	169.77455496788025	pulse	0	t		0.16666667	0.0666666666667	180.0	112.0	0.0333333333333	0.1333333333333	0.0666666666667	488.45918011665344	
6	171.3745138645172	pulse	0	t		0.16666667	0.0666666666667	180.0	112.0	0.0333333333333	0.1333333333333	0.0666666666667	490.0591390132904	
6	172.07750797271729	response	0	r		0.16666667	0.0666666666667	180.0	112.0	0.0333333333333	0.1333333333333	0.0666666666667	490.7621331214905	
6	172.97439980506897	pulse	0	t		0.16666667	0.0666666666667	180.0	112.0	0.0333333333333	0.1333333333333	0.0666666666667	491.65902495384216	
6	174.23936295509338	response	0	r		0.16666667	0.0666666666667	180.0	112.0	0.0333333333333	0.1333333333333	0.0666666666667	492.9239881038666	
6	174.57431292533875	pulse	0	t		0.16666667	0.0666666666667	180.0	112.0	0.0333333333333	0.1333333333333	0.0666666666667	493.25893807411194	
6	176.17425298690796	pulse	0	t		0.16666667	0.0666666666667	180.0	112.0	0.0333333333333	0.1333333333333	0.0666666666667	494.85887813568115	
6	177.77413177490234	pulse	0	t		0.16666667	0.0666666666667	180.0	112.0	0.0333333333333	0.1333333333333	0.0666666666667	496.45875692367554	
6	179.3740108013153	pulse	0	t		0.16666667	0.0666666666667	180.0	112.0	0.0333333333333	0.1333333333333	0.0666666666667	498.0586359500885	
7	179.39905190467834	stim	0		0	-1.0	1.0	-1.0	136.0	0.0333333333333	0.1333333333333	0.0666666666667	498.08367705345154	16.000004053115845
7	180.15746092796326	response	0	r		-1.0	1.0	-1.0	136.0	0.0333333333333	0.1333333333333	0.0666666666667	498.84208607673645	
7	180.97596096992493	pulse	0	t		-1.0	1.0	-1.0	136.0	0.0333333333333	0.1333333333333	0.0666666666667	499.6605861186981	
7	182.57592582702637	pulse	0	t		-1.0	1.0	-1.0	136.0	0.0333333333333	0.1333333333333	0.0666666666667	501.26055097579956	
7	183.31584477424622	response	0	r		-1.0	1.0	-1.0	136.0	0.0333333333333	0.1333333333333	0.0666666666667	502.0004699230194	
7	184.17586278915405	pulse	0	t		-1.0	1.0	-1.0	136.0	0.0333333333333	0.1333333333333	0.0666666666667	502.86048793792725	
7	185.59082579612732	response	0	r		-1.0	1.0	-1.0	136.0	0.0333333333333	0.1333333333333	0.0666666666667	504.2754509449005	
7	185.77583193778992	pulse	0	t		-1.0	1.0	-1.0	136.0	0.0333333333333	0.1333333333333	0.0666666666667	504.4604570865631	
7	187.37586188316345	pulse	0	t		-1.0	1.0	-1.0	136.0	0.0333333333333	0.1333333333333	0.0666666666667	506.06048703193665	
7	187.82417488098145	response	0	r		-1.0	1.0	-1.0	136.0	0.0333333333333	0.1333333333333	0.0666666666667	506.50880002975464	
7	188.97584295272827	pulse	0	t		-1.0	1.0	-1.0	136.0	0.0333333333333	0.1333333333333	0.0666666666667	507.66046810150146	
7	190.08425378799438	response	0	r		-1.0	1.0	-1.0	136.0	0.0333333333333	0.1333333333333	0.0666666666667	508.7688789367676	
7	190.57417392730713	pulse	0	t		-1.0	1.0	-1.0	136.0	0.0333333333333	0.1333333333333	0.0666666666667	509.2587990760803	
7	192.17415285110474	pulse	0	t		-1.0	1.0	-1.0	136.0	0.0333333333333	0.1333333333333	0.0666666666667	510.85877799987793	
7	193.43246388435364	response	0	r		-1.0	1.0	-1.0	136.0	0.0333333333333	0.1333333333333	0.0666666666667	512.1170890331268	
7	193.77417087554932	pulse	0	t		-1.0	1.0	-1.0	136.0	0.0333333333333	0.1333333333333	0.0666666666667	512.4587960243225	
7	195.37413597106934	pulse	0	t		-1.0	1.0	-1.0	136.0	0.0333333333333	0.1333333333333	0.0666666666667	514.0587611198425	
8	195.3990559577942	stim	0		0	-1.0	1.0	-1.0	152.0	0.0333333333333	0.1333333333333	0.0666666666667	514.0836811065674	15.999871969223022
8	196.97590279579163	pulse	0	t		-1.0	1.0	-1.0	152.0	0.0333333333333	0.1333333333333	0.0666666666667	515.6605279445648	
8	198.57591891288757	pulse	0	t		-1.0	1.0	-1.0	152.0	0.0333333333333	0.1333333333333	0.0666666666667	517.2605440616608	
8	199.91741394996643	response	0	r		-1.0	1.0	-1.0	152.0	0.0333333333333	0.1333333333333	0.0666666666667	518.6020390987396	
8	200.17589783668518	pulse	0	t		-1.0	1.0	-1.0	152.0	0.0333333333333	0.1333333333333	0.0666666666667	518.8605229854584	
8	201.77585291862488	pulse	0	t		-1.0	1.0	-1.0	152.0	0.0333333333333	0.1333333333333	0.0666666666667	520.4604780673981	
8	203.3757758140564	pulse	0	t		-1.0	1.0	-1.0	152.0	0.0333333333333	0.1333333333333	0.0666666666667	522.0604009628296	
8	204.97557187080383	pulse	0	t		-1.0	1.0	-1.0	152.0	0.0333333333333	0.1333333333333	0.0666666666667	523.660197019577	
8	206.57583093643188	pulse	0	t		-1.0	1.0	-1.0	152.0	0.0333333333333	0.1333333333333	0.0666666666667	525.2604560852051	
8	208.17584991455078	pulse	0	t		-1.0	1.0	-1.0	152.0	0.0333333333333	0.1333333333333	0.0666666666667	526.860475063324	
8	208.9156517982483	response	0	r		-1.0	1.0	-1.0	152.0	0.0333333333333	0.1333333333333	0.0666666666667	527.6002769470215	
8	209.77409386634827	pulse	0	t		-1.0	1.0	-1.0	152.0	0.0333333333333	0.1333333333333	0.0666666666667	528.4587190151215	
8	211.37401700019836	pulse	0	t		-1.0	1.0	-1.0	152.0	0.0333333333333	0.1333333333333	0.0666666666667	530.0586421489716	
9	211.3989279270172	stim	0		0	0.16666667	0.0666666666667	180.0	168.0	0.0333333333333	0.1333333333333	0.0666666666667	530.0835530757904	23.999867916107178
9	212.97498893737793	pulse	0	t		0.16666667	0.0666666666667	180.0	168.0	0.0333333333333	0.1333333333333	0.0666666666667	531.6596140861511	
9	213.4289689064026	response	0	r		0.16666667	0.0666666666667	180.0	168.0	0.0333333333333	0.1333333333333	0.0666666666667	532.1135940551758	
9	214.5749568939209	pulse	0	t		0.16666667	0.0666666666667	180.0	168.0	0.0333333333333	0.1333333333333	0.0666666666667	533.2595820426941	
9	215.39882588386536	response	0	r		0.16666667	0.0666666666667	180.0	168.0	0.0333333333333	0.1333333333333	0.0666666666667	534.0834510326385	
9	216.17471981048584	pulse	0	t		0.16666667	0.0666666666667	180.0	168.0	0.0333333333333	0.1333333333333	0.0666666666667	534.859344959259	
9	217.77474188804626	pulse	0	t		0.16666667	0.0666666666667	180.0	168.0	0.0333333333333	0.1333333333333	0.0666666666667	536.4593670368195	
9	219.37462186813354	pulse	0	t		0.16666667	0.0666666666667	180.0	168.0	0.0333333333333	0.1333333333333	0.0666666666667	538.0592470169067	
9	219.7775309085846	response	0	r		0.16666667	0.0666666666667	180.0	168.0	0.0333333333333	0.1333333333333	0.0666666666667	538.4621560573578	
9	220.97451496124268	pulse	0	t		0.16666667	0.0666666666667	180.0	168.0	0.0333333333333	0.1333333333333	0.0666666666667	539.6591401100159	
9	222.57441687583923	pulse	0	t		0.16666667	0.0666666666667	180.0	168.0	0.0333333333333	0.1333333333333	0.0666666666667	541.2590420246124	
9	224.1743447780609	pulse	0	t		0.16666667	0.0666666666667	180.0	168.0	0.0333333333333	0.1333333333333	0.0666666666667	542.8589699268341	
9	225.77425980567932	pulse	0	t		0.16666667	0.0666666666667	180.0	168.0	0.0333333333333	0.1333333333333	0.0666666666667	544.4588849544525	
9	227.37412881851196	pulse	0	t		0.16666667	0.0666666666667	180.0	168.0	0.0333333333333	0.1333333333333	0.0666666666667	546.0587539672852	
9	228.97502899169922	pulse	0	t		0.16666667	0.0666666666667	180.0	168.0	0.0333333333333	0.1333333333333	0.0666666666667	547.6596541404724	
9	230.57492995262146	pulse	0	t		0.16666667	0.0666666666667	180.0	168.0	0.0333333333333	0.1333333333333	0.0666666666667	549.2595551013947	
9	232.1747829914093	pulse	0	t		0.16666667	0.0666666666667	180.0	168.0	0.0333333333333	0.1333333333333	0.0666666666667	550.8594081401825	
9	233.77476286888123	pulse	0	t		0.16666667	0.0666666666667	180.0	168.0	0.0333333333333	0.1333333333333	0.0666666666667	552.4593880176544	
9	235.37466287612915	pulse	0	t		0.16666667	0.0666666666667	180.0	168.0	0.0333333333333	0.1333333333333	0.0666666666667	554.0592880249023	
10	235.3987958431244	stim	0		0	0.16666667	0.0666666666667	90.0	192.0	0.0333333333333	0.1333333333333	0.0666666666667	554.0834209918976	23.999580144882202
10	235.62663197517395	response	0	r		0.16666667	0.0666666666667	90.0	192.0	0.0333333333333	0.1333333333333	0.0666666666667	554.3112571239471	
10	236.97456884384155	pulse	0	t		0.16666667	0.0666666666667	90.0	192.0	0.0333333333333	0.1333333333333	0.0666666666667	555.6591939926147	
10	238.57442378997803	pulse	0	t		0.16666667	0.0666666666667	90.0	192.0	0.0333333333333	0.1333333333333	0.0666666666667	557.2590489387512	
10	240.08828496932983	response	0	r		0.16666667	0.0666666666667	90.0	192.0	0.0333333333333	0.1333333333333	0.0666666666667	558.772910118103	
10	240.17415595054626	pulse	0	t		0.16666667	0.0666666666667	90.0	192.0	0.0333333333333	0.1333333333333	0.0666666666667	558.8587810993195	
10	241.77422285079956	pulse	0	t		0.16666667	0.0666666666667	90.0	192.0	0.0333333333333	0.1333333333333	0.0666666666667	560.4588479995728	
10	242.2981879711151	response	0	r		0.16666667	0.0666666666667	90.0	192.0	0.0333333333333	0.1333333333333	0.0666666666667	560.9828131198883	
10	243.37411999702454	pulse	0	t		0.16666667	0.0666666666667	90.0	192.0	0.0333333333333	0.1333333333333	0.0666666666667	562.0587451457977	
10	244.97509288787842	pulse	0	t		0.16666667	0.0666666666667	90.0	192.0	0.0333333333333	0.1333333333333	0.0666666666667	563.6597180366516	
10	246.57501482963562	pulse	0	t		0.16666667	0.0666666666667	90.0	192.0	0.0333333333333	0.1333333333333	0.0666666666667	565.2596399784088	
10	248.17482495307922	pulse	0	t		0.16666667	0.0666666666667	90.0	192.0	0.0333333333333	0.1333333333333	0.0666666666667	566.8594501018524	
10	248.66777300834656	response	0	r		0.16666667	0.0666666666667	90.0	192.0	0.0333333333333	0.1333333333333	0.0666666666667	567.3523981571198	
10	249.7747368812561	pulse	0	t		0.16666667	0.0666666666667	90.0	192.0	0.0333333333333	0.1333333333333	0.0666666666667	568.4593620300293	
10	251.3746418952942	pulse	0	t		0.16666667	0.0666666666667	90.0	192.0	0.0333333333333	0.1333333333333	0.0666666666667	570.0592670440674	
10	251.7796277999878	response	0	r		0.16666667	0.0666666666667	90.0	192.0	0.0333333333333	0.1333333333333	0.0666666666667	570.464252948761	
10	252.9744918346405	pulse	0	t		0.16666667	0.0666666666667	90.0	192.0	0.0333333333333	0.1333333333333	0.0666666666667	571.6591169834137	
10	254.40048098564148	response	0	r		0.16666667	0.0666666666667	90.0	192.0	0.0333333333333	0.1333333333333	0.0666666666667	573.0851061344147	
10	254.5742838382721	pulse	0	t		0.16666667	0.0666666666667	90.0	192.0	0.0333333333333	0.1333333333333	0.0666666666667	573.2589089870453	
10	256.174409866333	pulse	0	t		0.16666667	0.0666666666667	90.0	192.0	0.0333333333333	0.1333333333333	0.0666666666667	574.8590350151062	
10	257.59325981140137	response	0	r		0.16666667	0.0666666666667	90.0	192.0	0.0333333333333	0.1333333333333	0.0666666666667	576.2778849601746	
10	257.7741198539734	pulse	0	t		0.16666667	0.0666666666667	90.0	192.0	0.0333333333333	0.1333333333333	0.0666666666667	576.4587450027466	
10	259.37418484687805	pulse	0	t		0.16666667	0.0666666666667	90.0	192.0	0.0333333333333	0.1333333333333	0.0666666666667	578.0588099956512	
11	259.3983759880066	stim	0		0	-1.0	1.0	-1.0	216.0	0.0333333333333	0.1333333333333	0.0666666666667	578.0830011367798	15.991896867752075
11	260.48229479789734	response	0	r		-1.0	1.0	-1.0	216.0	0.0333333333333	0.1333333333333	0.0666666666667	579.1669199466705	
11	260.97579979896545	pulse	0	t		-1.0	1.0	-1.0	216.0	0.0333333333333	0.1333333333333	0.0666666666667	579.6604249477386	
11	262.575758934021	pulse	0	t		-1.0	1.0	-1.0	216.0	0.0333333333333	0.1333333333333	0.0666666666667	581.2603840827942	
11	264.17552185058594	pulse	0	t		-1.0	1.0	-1.0	216.0	0.0333333333333	0.1333333333333	0.0666666666667	582.8601469993591	
11	265.7755308151245	pulse	0	t		-1.0	1.0	-1.0	216.0	0.0333333333333	0.1333333333333	0.0666666666667	584.4601559638977	
11	265.90709400177	response	0	r		-1.0	1.0	-1.0	216.0	0.0333333333333	0.1333333333333	0.0666666666667	584.5917191505432	
11	267.3755249977112	pulse	0	t		-1.0	1.0	-1.0	216.0	0.0333333333333	0.1333333333333	0.0666666666667	586.0601501464844	
11	268.9756419658661	pulse	0	t		-1.0	1.0	-1.0	216.0	0.0333333333333	0.1333333333333	0.0666666666667	587.6602671146393	
11	269.2671527862549	response	0	r		-1.0	1.0	-1.0	216.0	0.0333333333333	0.1333333333333	0.0666666666667	587.9517779350281	
11	270.5755178928375	pulse	0	t		-1.0	1.0	-1.0	216.0	0.0333333333333	0.1333333333333	0.0666666666667	589.2601430416107	
11	272.17557191848755	pulse	0	t		-1.0	1.0	-1.0	216.0	0.0333333333333	0.1333333333333	0.0666666666667	590.8601970672607	
11	273.7753758430481	pulse	0	t		-1.0	1.0	-1.0	216.0	0.0333333333333	0.1333333333333	0.0666666666667	592.4600009918213	
11	275.37546586990356	pulse	0	t		-1.0	1.0	-1.0	216.0	0.0333333333333	0.1333333333333	0.0666666666667	594.0600910186768	
12	275.39027285575867	stim	0		0	0.16666667	0.0666666666667	0.0	232.0	0.0333333333333	0.1333333333333	0.0666666666667	594.0748980045319	23.999869108200073
12	275.5291669368744	response	0	r		0.16666667	0.0666666666667	0.0	232.0	0.0333333333333	0.1333333333333	0.0666666666667	594.2137920856476	
12	276.97509479522705	pulse	0	t		0.16666667	0.0666666666667	0.0	232.0	0.0333333333333	0.1333333333333	0.0666666666667	595.6597199440002	
12	278.57502484321594	pulse	0	t		0.16666667	0.0666666666667	0.0	232.0	0.0333333333333	0.1333333333333	0.0666666666667	597.2596499919891	
12	280.1749107837677	pulse	0	t		0.16666667	0.0666666666667	0.0	232.0	0.0333333333333	0.1333333333333	0.0666666666667	598.8595359325409	
12	281.7747848033905	pulse	0	t		0.16666667	0.0666666666667	0.0	232.0	0.0333333333333	0.1333333333333	0.0666666666667	600.4594099521637	
12	282.81970500946045	response	0	r		0.16666667	0.0666666666667	0.0	232.0	0.0333333333333	0.1333333333333	0.0666666666667	601.5043301582336	
12	283.37464785575867	pulse	0	t		0.16666667	0.0666666666667	0.0	232.0	0.0333333333333	0.1333333333333	0.0666666666667	602.0592730045319	
12	284.97463297843933	pulse	0	t		0.16666667	0.0666666666667	0.0	232.0	0.0333333333333	0.1333333333333	0.0666666666667	603.6592581272125	
12	286.574590921402	pulse	0	t		0.16666667	0.0666666666667	0.0	232.0	0.0333333333333	0.1333333333333	0.0666666666667	605.2592160701752	
12	288.17446088790894	pulse	0	t		0.16666667	0.0666666666667	0.0	232.0	0.0333333333333	0.1333333333333	0.0666666666667	606.8590860366821	
12	288.9384069442749	response	0	r		0.16666667	0.0666666666667	0.0	232.0	0.0333333333333	0.1333333333333	0.0666666666667	607.6230320930481	
12	289.7743549346924	pulse	0	t		0.16666667	0.0666666666667	0.0	232.0	0.0333333333333	0.1333333333333	0.0666666666667	608.4589800834656	
12	291.3742628097534	pulse	0	t		0.16666667	0.0666666666667	0.0	232.0	0.0333333333333	0.1333333333333	0.0666666666667	610.0588879585266	
12	292.9752299785614	pulse	0	t		0.16666667	0.0666666666667	0.0	232.0	0.0333333333333	0.1333333333333	0.0666666666667	611.6598551273346	
12	294.57504987716675	pulse	0	t		0.16666667	0.0666666666667	0.0	232.0	0.0333333333333	0.1333333333333	0.0666666666667	613.2596750259399	
12	296.17491483688354	pulse	0	t		0.16666667	0.0666666666667	0.0	232.0	0.0333333333333	0.1333333333333	0.0666666666667	614.8595399856567	
12	297.7748317718506	pulse	0	t		0.16666667	0.0666666666667	0.0	232.0	0.0333333333333	0.1333333333333	0.0666666666667	616.4594569206238	
12	299.3747618198395	pulse	0	t		0.16666667	0.0666666666667	0.0	232.0	0.0333333333333	0.1333333333333	0.0666666666667	618.0593869686127	
13	299.39014196395874	stim	0		0	0.16666667	0.0666666666667	270.0	256.0	0.0333333333333	0.1333333333333	0.0666666666667	618.0747671127319	24.008158922195435
13	299.68269300460815	response	0	r		0.16666667	0.0666666666667	270.0	256.0	0.0333333333333	0.1333333333333	0.0666666666667	618.3673181533813	
13	300.97459983825684	pulse	0	t		0.16666667	0.0666666666667	270.0	256.0	0.0333333333333	0.1333333333333	0.0666666666667	619.65922498703	
13	302.574569940567	pulse	0	t		0.16666667	0.0666666666667	270.0	256.0	0.0333333333333	0.1333333333333	0.0666666666667	621.2591950893402	
13	303.79028391838074	response	0	r		0.16666667	0.0666666666667	270.0	256.0	0.0333333333333	0.1333333333333	0.0666666666667	622.4749090671539	
13	304.17443680763245	pulse	0	t		0.16666667	0.0666666666667	270.0	256.0	0.0333333333333	0.1333333333333	0.0666666666667	622.8590619564056	
13	305.7743887901306	pulse	0	t		0.16666667	0.0666666666667	270.0	256.0	0.0333333333333	0.1333333333333	0.0666666666667	624.4590139389038	
13	306.93329095840454	response	0	r		0.16666667	0.0666666666667	270.0	256.0	0.0333333333333	0.1333333333333	0.0666666666667	625.6179161071777	
13	307.37433886528015	pulse	0	t		0.16666667	0.0666666666667	270.0	256.0	0.0333333333333	0.1333333333333	0.0666666666667	626.0589640140533	
13	308.9741189479828	pulse	0	t		0.16666667	0.0666666666667	270.0	256.0	0.0333333333333	0.1333333333333	0.0666666666667	627.658744096756	
13	310.5750467777252	pulse	0	t		0.16666667	0.0666666666667	270.0	256.0	0.0333333333333	0.1333333333333	0.0666666666667	629.2596719264984	
13	310.67983388900757	response	0	r		0.16666667	0.0666666666667	270.0	256.0	0.0333333333333	0.1333333333333	0.0666666666667	629.3644590377808	
13	312.1749448776245	pulse	0	t		0.16666667	0.0666666666667	270.0	256.0	0.0333333333333	0.1333333333333	0.0666666666667	630.8595700263977	
13	313.77486991882324	pulse	0	t		0.16666667	0.0666666666667	270.0	256.0	0.0333333333333	0.1333333333333	0.0666666666667	632.4594950675964	
13	315.3748188018799	pulse	0	t		0.16666667	0.0666666666667	270.0	256.0	0.0333333333333	0.1333333333333	0.0666666666667	634.0594439506531	
13	316.97469091415405	pulse	0	t		0.16666667	0.0666666666667	270.0	256.0	0.0333333333333	0.1333333333333	0.0666666666667	635.6593160629272	
13	318.020623922348	response	0	r		0.16666667	0.0666666666667	270.0	256.0	0.0333333333333	0.1333333333333	0.0666666666667	636.7052490711212	
13	318.5745458602905	pulse	0	t		0.16666667	0.0666666666667	270.0	256.0	0.0333333333333	0.1333333333333	0.0666666666667	637.2591710090637	
13	320.1744828224182	pulse	0	t		0.16666667	0.0666666666667	270.0	256.0	0.0333333333333	0.1333333333333	0.0666666666667	638.8591079711914	
13	321.77436089515686	pulse	0	t		0.16666667	0.0666666666667	270.0	256.0	0.0333333333333	0.1333333333333	0.0666666666667	640.45898604393	
13	323.3742787837982	pulse	0	t		0.16666667	0.0666666666667	270.0	256.0	0.0333333333333	0.1333333333333	0.0666666666667	642.0589039325714	
14	323.3983008861542	stim	0		0								642.0829260349274	24.341651916503906
14	324.9755308628082	pulse	0	t									643.6601560115814	
14	326.57553577423096	pulse	0	t									645.2601609230042	
14	328.17546486854553	pulse	0	t									646.8600900173187	
14	329.77552580833435	pulse	0	t									648.4601509571075	
14	331.3756477832794	pulse	0	t									650.0602729320526	
14	332.97554183006287	pulse	0	t									651.6601669788361	
14	334.5754609107971	pulse	0	t									653.2600860595703	
14	336.175479888916	pulse	0	t									654.8601050376892	
14	337.775447845459	pulse	0	t									656.4600729942322	
14	339.3755748271942	pulse	0	t									658.0601999759674	
14	340.9753928184509	pulse	0	t									659.6600179672241	
14	342.57555294036865	pulse	0	t									661.2601780891418	
14	344.1754548549652	pulse	0	t									662.8600800037384	
14	345.7754008769989	pulse	0	t									664.4600260257721	
14	347.37534284591675	pulse	0	t									666.0599679946899	
