trial_nr	onset	event_type	phase	response	nr_frames	bar_width	bar_refresh_time	bar_direction	start_time	bar_blank_duration	bar_blank_interval	bg_stim_refresh_time	onset_abs	duration
0	0.1834409236907959	stim	0		0								90.38623285293579	27.512152910232544
0	27.687477827072144	response	0	space									117.89026975631714	
1	27.69559383392334	stim	0		0								117.89838576316833	41.4685161113739
1	69.13455986976624	pulse	0	t									159.33735179901123	
1	69.16410994529724	stim	1		0								159.36690187454224	0.0009059906005859375
1	69.16501593589783	stim	0		0								159.36780786514282	23.998744010925293
1	70.72897291183472	pulse	0	t									160.9317648410797	
1	72.3292989730835	pulse	0	t									162.5320909023285	
1	73.92953896522522	pulse	0	t									164.13233089447021	
1	75.5296778678894	pulse	0	t									165.7324697971344	
1	77.12989282608032	pulse	0	t									167.33268475532532	
1	78.72829484939575	pulse	0	t									168.93108677864075	
1	79.57849788665771	response	0	b									169.7812898159027	
1	80.3285129070282	pulse	0	t									170.5313048362732	
1	81.92881894111633	pulse	0	t									172.13161087036133	
1	83.52905797958374	pulse	0	t									173.73184990882874	
1	84.46256899833679	response	0	b									174.6653609275818	
1	85.1293728351593	pulse	0	t									175.3321647644043	
1	86.72954297065735	pulse	0	t									176.93233489990234	
1	87.59826683998108	response	0	b									177.80105876922607	
1	88.32977795600891	pulse	0	t									178.5325698852539	
1	89.93007493019104	pulse	0	t									180.13286685943604	
1	90.35510182380676	response	0	b									180.55789375305176	
1	91.53036689758301	pulse	0	t									181.733158826828	
1	93.13054084777832	pulse	0	t									183.33333277702332	
2	93.16375994682312	stim	0		0	0.16666667	0.0666666666667	270.0	24.0	0.0333333333333	0.1333333333333	0.0666666666667	183.36655187606812	23.99533200263977
2	93.91352796554565	response	0	b		0.16666667	0.0666666666667	270.0	24.0	0.0333333333333	0.1333333333333	0.0666666666667	184.11631989479065	
2	94.72848200798035	pulse	0	t		0.16666667	0.0666666666667	270.0	24.0	0.0333333333333	0.1333333333333	0.0666666666667	184.93127393722534	
2	96.32847094535828	pulse	0	t		0.16666667	0.0666666666667	270.0	24.0	0.0333333333333	0.1333333333333	0.0666666666667	186.53126287460327	
2	96.43104696273804	response	0	b		0.16666667	0.0666666666667	270.0	24.0	0.0333333333333	0.1333333333333	0.0666666666667	186.63383889198303	
2	97.92852687835693	pulse	0	t		0.16666667	0.0666666666667	270.0	24.0	0.0333333333333	0.1333333333333	0.0666666666667	188.13131880760193	
2	99.01351189613342	response	0	b		0.16666667	0.0666666666667	270.0	24.0	0.0333333333333	0.1333333333333	0.0666666666667	189.21630382537842	
2	99.52846384048462	pulse	0	t		0.16666667	0.0666666666667	270.0	24.0	0.0333333333333	0.1333333333333	0.0666666666667	189.73125576972961	
2	101.12846088409424	pulse	0	t		0.16666667	0.0666666666667	270.0	24.0	0.0333333333333	0.1333333333333	0.0666666666667	191.33125281333923	
2	102.7285668849945	pulse	0	t		0.16666667	0.0666666666667	270.0	24.0	0.0333333333333	0.1333333333333	0.0666666666667	192.9313588142395	
2	104.32850193977356	pulse	0	t		0.16666667	0.0666666666667	270.0	24.0	0.0333333333333	0.1333333333333	0.0666666666667	194.53129386901855	
2	104.83251881599426	response	0	b		0.16666667	0.0666666666667	270.0	24.0	0.0333333333333	0.1333333333333	0.0666666666667	195.03531074523926	
2	105.92850279808044	pulse	0	t		0.16666667	0.0666666666667	270.0	24.0	0.0333333333333	0.1333333333333	0.0666666666667	196.13129472732544	
2	107.52862286567688	pulse	0	t		0.16666667	0.0666666666667	270.0	24.0	0.0333333333333	0.1333333333333	0.0666666666667	197.73141479492188	
2	109.12865090370178	pulse	0	t		0.16666667	0.0666666666667	270.0	24.0	0.0333333333333	0.1333333333333	0.0666666666667	199.33144283294678	
2	110.7286388874054	pulse	0	t		0.16666667	0.0666666666667	270.0	24.0	0.0333333333333	0.1333333333333	0.0666666666667	200.9314308166504	
2	112.32855296134949	pulse	0	t		0.16666667	0.0666666666667	270.0	24.0	0.0333333333333	0.1333333333333	0.0666666666667	202.53134489059448	
2	113.92862796783447	pulse	0	t		0.16666667	0.0666666666667	270.0	24.0	0.0333333333333	0.1333333333333	0.0666666666667	204.13141989707947	
2	115.52861785888672	pulse	0	t		0.16666667	0.0666666666667	270.0	24.0	0.0333333333333	0.1333333333333	0.0666666666667	205.7314097881317	
2	116.90060997009277	response	0	b		0.16666667	0.0666666666667	270.0	24.0	0.0333333333333	0.1333333333333	0.0666666666667	207.10340189933777	
2	117.1285719871521	pulse	0	t		0.16666667	0.0666666666667	270.0	24.0	0.0333333333333	0.1333333333333	0.0666666666667	207.3313639163971	
3	117.15909194946289	stim	0		0	0.16666667	0.0666666666667	0.0	48.0	0.0333333333333	0.1333333333333	0.0666666666667	207.36188387870789	24.01185703277588
3	118.72870898246765	pulse	0	t		0.16666667	0.0666666666667	0.0	48.0	0.0333333333333	0.1333333333333	0.0666666666667	208.93150091171265	
3	118.96564292907715	response	0	b		0.16666667	0.0666666666667	0.0	48.0	0.0333333333333	0.1333333333333	0.0666666666667	209.16843485832214	
3	120.32874894142151	pulse	0	t		0.16666667	0.0666666666667	0.0	48.0	0.0333333333333	0.1333333333333	0.0666666666667	210.5315408706665	
3	121.9287519454956	pulse	0	t		0.16666667	0.0666666666667	0.0	48.0	0.0333333333333	0.1333333333333	0.0666666666667	212.1315438747406	
3	123.5287618637085	pulse	0	t		0.16666667	0.0666666666667	0.0	48.0	0.0333333333333	0.1333333333333	0.0666666666667	213.7315537929535	
3	125.12879490852356	pulse	0	t		0.16666667	0.0666666666667	0.0	48.0	0.0333333333333	0.1333333333333	0.0666666666667	215.33158683776855	
3	125.8607108592987	response	0	b		0.16666667	0.0666666666667	0.0	48.0	0.0333333333333	0.1333333333333	0.0666666666667	216.0635027885437	
3	126.72874879837036	pulse	0	t		0.16666667	0.0666666666667	0.0	48.0	0.0333333333333	0.1333333333333	0.0666666666667	216.93154072761536	
3	128.32880783081055	pulse	0	t		0.16666667	0.0666666666667	0.0	48.0	0.0333333333333	0.1333333333333	0.0666666666667	218.53159976005554	
3	128.37460780143738	response	0	b		0.16666667	0.0666666666667	0.0	48.0	0.0333333333333	0.1333333333333	0.0666666666667	218.57739973068237	
3	129.92884278297424	pulse	0	t		0.16666667	0.0666666666667	0.0	48.0	0.0333333333333	0.1333333333333	0.0666666666667	220.13163471221924	
3	130.54379391670227	response	0	b		0.16666667	0.0666666666667	0.0	48.0	0.0333333333333	0.1333333333333	0.0666666666667	220.74658584594727	
3	131.52881693840027	pulse	0	t		0.16666667	0.0666666666667	0.0	48.0	0.0333333333333	0.1333333333333	0.0666666666667	221.73160886764526	
3	132.82448196411133	response	0	b		0.16666667	0.0666666666667	0.0	48.0	0.0333333333333	0.1333333333333	0.0666666666667	223.02727389335632	
3	133.12875699996948	pulse	0	t		0.16666667	0.0666666666667	0.0	48.0	0.0333333333333	0.1333333333333	0.0666666666667	223.33154892921448	
3	134.7288579940796	pulse	0	t		0.16666667	0.0666666666667	0.0	48.0	0.0333333333333	0.1333333333333	0.0666666666667	224.93164992332458	
3	135.9509618282318	response	0	b		0.16666667	0.0666666666667	0.0	48.0	0.0333333333333	0.1333333333333	0.0666666666667	226.1537537574768	
3	136.32886481285095	pulse	0	t		0.16666667	0.0666666666667	0.0	48.0	0.0333333333333	0.1333333333333	0.0666666666667	226.53165674209595	
3	137.9289128780365	pulse	0	t		0.16666667	0.0666666666667	0.0	48.0	0.0333333333333	0.1333333333333	0.0666666666667	228.1317048072815	
3	138.7419228553772	response	0	b		0.16666667	0.0666666666667	0.0	48.0	0.0333333333333	0.1333333333333	0.0666666666667	228.9447147846222	
3	139.5289318561554	pulse	0	t		0.16666667	0.0666666666667	0.0	48.0	0.0333333333333	0.1333333333333	0.0666666666667	229.7317237854004	
3	141.00690579414368	response	0	b		0.16666667	0.0666666666667	0.0	48.0	0.0333333333333	0.1333333333333	0.0666666666667	231.20969772338867	
3	141.12889790534973	pulse	0	t		0.16666667	0.0666666666667	0.0	48.0	0.0333333333333	0.1333333333333	0.0666666666667	231.33168983459473	
4	141.17094898223877	stim	0		0	-1.0	1.0	-1.0	72.0	0.0333333333333	0.1333333333333	0.0666666666667	231.37374091148376	15.99410080909729
4	142.7295548915863	pulse	0	t		-1.0	1.0	-1.0	72.0	0.0333333333333	0.1333333333333	0.0666666666667	232.9323468208313	
4	144.32993078231812	pulse	0	t		-1.0	1.0	-1.0	72.0	0.0333333333333	0.1333333333333	0.0666666666667	234.5327227115631	
4	145.93014478683472	pulse	0	t		-1.0	1.0	-1.0	72.0	0.0333333333333	0.1333333333333	0.0666666666667	236.1329367160797	
4	147.53042793273926	pulse	0	t		-1.0	1.0	-1.0	72.0	0.0333333333333	0.1333333333333	0.0666666666667	237.73321986198425	
4	147.58040380477905	response	0	b		-1.0	1.0	-1.0	72.0	0.0333333333333	0.1333333333333	0.0666666666667	237.78319573402405	
4	149.1304898262024	pulse	0	t		-1.0	1.0	-1.0	72.0	0.0333333333333	0.1333333333333	0.0666666666667	239.3332817554474	
4	150.73098182678223	pulse	0	t		-1.0	1.0	-1.0	72.0	0.0333333333333	0.1333333333333	0.0666666666667	240.93377375602722	
4	152.33109498023987	pulse	0	t		-1.0	1.0	-1.0	72.0	0.0333333333333	0.1333333333333	0.0666666666667	242.53388690948486	
4	152.61444878578186	response	0	b		-1.0	1.0	-1.0	72.0	0.0333333333333	0.1333333333333	0.0666666666667	242.81724071502686	
4	153.93128180503845	pulse	0	t		-1.0	1.0	-1.0	72.0	0.0333333333333	0.1333333333333	0.0666666666667	244.13407373428345	
4	155.5315067768097	pulse	0	t		-1.0	1.0	-1.0	72.0	0.0333333333333	0.1333333333333	0.0666666666667	245.7342987060547	
4	155.58141994476318	response	0	b		-1.0	1.0	-1.0	72.0	0.0333333333333	0.1333333333333	0.0666666666667	245.78421187400818	
4	157.13165593147278	pulse	0	t		-1.0	1.0	-1.0	72.0	0.0333333333333	0.1333333333333	0.0666666666667	247.33444786071777	
5	157.16504979133606	stim	0		0	0.16666667	0.0666666666667	90.0	88.0	0.0333333333333	0.1333333333333	0.0666666666667	247.36784172058105	24.003504991531372
5	157.72018194198608	response	0	b		0.16666667	0.0666666666667	90.0	88.0	0.0333333333333	0.1333333333333	0.0666666666667	247.92297387123108	
5	158.72816395759583	pulse	0	t		0.16666667	0.0666666666667	90.0	88.0	0.0333333333333	0.1333333333333	0.0666666666667	248.93095588684082	
5	160.32819294929504	pulse	0	t		0.16666667	0.0666666666667	90.0	88.0	0.0333333333333	0.1333333333333	0.0666666666667	250.53098487854004	
5	160.79023694992065	response	0	b		0.16666667	0.0666666666667	90.0	88.0	0.0333333333333	0.1333333333333	0.0666666666667	250.99302887916565	
5	161.92828392982483	pulse	0	t		0.16666667	0.0666666666667	90.0	88.0	0.0333333333333	0.1333333333333	0.0666666666667	252.13107585906982	
5	163.52820777893066	pulse	0	t		0.16666667	0.0666666666667	90.0	88.0	0.0333333333333	0.1333333333333	0.0666666666667	253.73099970817566	
5	165.1282467842102	pulse	0	t		0.16666667	0.0666666666667	90.0	88.0	0.0333333333333	0.1333333333333	0.0666666666667	255.3310387134552	
5	165.49118900299072	response	0	b		0.16666667	0.0666666666667	90.0	88.0	0.0333333333333	0.1333333333333	0.0666666666667	255.69398093223572	
5	166.72828483581543	pulse	0	t		0.16666667	0.0666666666667	90.0	88.0	0.0333333333333	0.1333333333333	0.0666666666667	256.9310767650604	
5	168.32826399803162	pulse	0	t		0.16666667	0.0666666666667	90.0	88.0	0.0333333333333	0.1333333333333	0.0666666666667	258.5310559272766	
5	168.8853747844696	response	0	b		0.16666667	0.0666666666667	90.0	88.0	0.0333333333333	0.1333333333333	0.0666666666667	259.0881667137146	
5	169.9284689426422	pulse	0	t		0.16666667	0.0666666666667	90.0	88.0	0.0333333333333	0.1333333333333	0.0666666666667	260.1312608718872	
5	171.46641278266907	response	0	b		0.16666667	0.0666666666667	90.0	88.0	0.0333333333333	0.1333333333333	0.0666666666667	261.66920471191406	
5	171.52829885482788	pulse	0	t		0.16666667	0.0666666666667	90.0	88.0	0.0333333333333	0.1333333333333	0.0666666666667	261.7310907840729	
5	173.12845492362976	pulse	0	t		0.16666667	0.0666666666667	90.0	88.0	0.0333333333333	0.1333333333333	0.0666666666667	263.33124685287476	
5	174.7284688949585	pulse	0	t		0.16666667	0.0666666666667	90.0	88.0	0.0333333333333	0.1333333333333	0.0666666666667	264.9312608242035	
5	175.02941799163818	response	0	b		0.16666667	0.0666666666667	90.0	88.0	0.0333333333333	0.1333333333333	0.0666666666667	265.2322099208832	
5	176.32847094535828	pulse	0	t		0.16666667	0.0666666666667	90.0	88.0	0.0333333333333	0.1333333333333	0.0666666666667	266.53126287460327	
5	177.24848699569702	response	0	b		0.16666667	0.0666666666667	90.0	88.0	0.0333333333333	0.1333333333333	0.0666666666667	267.451278924942	
5	177.9284429550171	pulse	0	t		0.16666667	0.0666666666667	90.0	88.0	0.0333333333333	0.1333333333333	0.0666666666667	268.1312348842621	
5	179.52854895591736	pulse	0	t		0.16666667	0.0666666666667	90.0	88.0	0.0333333333333	0.1333333333333	0.0666666666667	269.73134088516235	
5	181.12849497795105	pulse	0	t		0.16666667	0.0666666666667	90.0	88.0	0.0333333333333	0.1333333333333	0.0666666666667	271.33128690719604	
6	181.16855478286743	stim	0		0	0.16666667	0.0666666666667	180.0	112.0	0.0333333333333	0.1333333333333	0.0666666666667	271.3713467121124	23.995342016220093
6	182.72850489616394	pulse	0	t		0.16666667	0.0666666666667	180.0	112.0	0.0333333333333	0.1333333333333	0.0666666666667	272.93129682540894	
6	184.3285129070282	pulse	0	t		0.16666667	0.0666666666667	180.0	112.0	0.0333333333333	0.1333333333333	0.0666666666667	274.5313048362732	
6	185.92853093147278	pulse	0	t		0.16666667	0.0666666666667	180.0	112.0	0.0333333333333	0.1333333333333	0.0666666666667	276.1313228607178	
6	187.52862000465393	pulse	0	t		0.16666667	0.0666666666667	180.0	112.0	0.0333333333333	0.1333333333333	0.0666666666667	277.7314119338989	
6	189.12865591049194	pulse	0	t		0.16666667	0.0666666666667	180.0	112.0	0.0333333333333	0.1333333333333	0.0666666666667	279.33144783973694	
6	189.74662685394287	response	0	b		0.16666667	0.0666666666667	180.0	112.0	0.0333333333333	0.1333333333333	0.0666666666667	279.94941878318787	
6	190.72866582870483	pulse	0	t		0.16666667	0.0666666666667	180.0	112.0	0.0333333333333	0.1333333333333	0.0666666666667	280.93145775794983	
6	191.79961585998535	response	0	b		0.16666667	0.0666666666667	180.0	112.0	0.0333333333333	0.1333333333333	0.0666666666667	282.00240778923035	
6	192.3286108970642	pulse	0	t		0.16666667	0.0666666666667	180.0	112.0	0.0333333333333	0.1333333333333	0.0666666666667	282.5314028263092	
6	193.9285888671875	pulse	0	t		0.16666667	0.0666666666667	180.0	112.0	0.0333333333333	0.1333333333333	0.0666666666667	284.1313807964325	
6	194.7285599708557	response	0	b		0.16666667	0.0666666666667	180.0	112.0	0.0333333333333	0.1333333333333	0.0666666666667	284.9313519001007	
6	195.5285828113556	pulse	0	t		0.16666667	0.0666666666667	180.0	112.0	0.0333333333333	0.1333333333333	0.0666666666667	285.7313747406006	
6	197.12862586975098	pulse	0	t		0.16666667	0.0666666666667	180.0	112.0	0.0333333333333	0.1333333333333	0.0666666666667	287.331417798996	
6	198.70966577529907	response	0	b		0.16666667	0.0666666666667	180.0	112.0	0.0333333333333	0.1333333333333	0.0666666666667	288.91245770454407	
6	198.72852778434753	pulse	0	t		0.16666667	0.0666666666667	180.0	112.0	0.0333333333333	0.1333333333333	0.0666666666667	288.93131971359253	
6	200.32866978645325	pulse	0	t		0.16666667	0.0666666666667	180.0	112.0	0.0333333333333	0.1333333333333	0.0666666666667	290.53146171569824	
6	201.92866396903992	pulse	0	t		0.16666667	0.0666666666667	180.0	112.0	0.0333333333333	0.1333333333333	0.0666666666667	292.1314558982849	
6	202.3635058403015	response	0	b		0.16666667	0.0666666666667	180.0	112.0	0.0333333333333	0.1333333333333	0.0666666666667	292.5662977695465	
6	203.52866578102112	pulse	0	t		0.16666667	0.0666666666667	180.0	112.0	0.0333333333333	0.1333333333333	0.0666666666667	293.7314577102661	
6	205.12871098518372	pulse	0	t		0.16666667	0.0666666666667	180.0	112.0	0.0333333333333	0.1333333333333	0.0666666666667	295.3315029144287	
7	205.16389679908752	stim	0		0	-1.0	1.0	-1.0	136.0	0.0333333333333	0.1333333333333	0.0666666666667	295.3666887283325	16.00230312347412
7	206.73092484474182	pulse	0	t		-1.0	1.0	-1.0	136.0	0.0333333333333	0.1333333333333	0.0666666666667	296.9337167739868	
7	207.2809338569641	response	0	b		-1.0	1.0	-1.0	136.0	0.0333333333333	0.1333333333333	0.0666666666667	297.4837257862091	
7	208.3310627937317	pulse	0	t		-1.0	1.0	-1.0	136.0	0.0333333333333	0.1333333333333	0.0666666666667	298.5338547229767	
7	209.83959484100342	response	0	b		-1.0	1.0	-1.0	136.0	0.0333333333333	0.1333333333333	0.0666666666667	300.0423867702484	
7	209.93130493164062	pulse	0	t		-1.0	1.0	-1.0	136.0	0.0333333333333	0.1333333333333	0.0666666666667	300.1340968608856	
7	211.5316288471222	pulse	0	t		-1.0	1.0	-1.0	136.0	0.0333333333333	0.1333333333333	0.0666666666667	301.7344207763672	
7	212.29835987091064	response	0	b		-1.0	1.0	-1.0	136.0	0.0333333333333	0.1333333333333	0.0666666666667	302.50115180015564	
7	213.13182592391968	pulse	0	t		-1.0	1.0	-1.0	136.0	0.0333333333333	0.1333333333333	0.0666666666667	303.3346178531647	
7	214.7321228981018	pulse	0	t		-1.0	1.0	-1.0	136.0	0.0333333333333	0.1333333333333	0.0666666666667	304.9349148273468	
7	216.3323209285736	pulse	0	t		-1.0	1.0	-1.0	136.0	0.0333333333333	0.1333333333333	0.0666666666667	306.5351128578186	
7	216.8740599155426	response	0	b		-1.0	1.0	-1.0	136.0	0.0333333333333	0.1333333333333	0.0666666666667	307.0768518447876	
7	217.93260288238525	pulse	0	t		-1.0	1.0	-1.0	136.0	0.0333333333333	0.1333333333333	0.0666666666667	308.13539481163025	
7	219.5326828956604	pulse	0	t		-1.0	1.0	-1.0	136.0	0.0333333333333	0.1333333333333	0.0666666666667	309.7354748249054	
7	221.1330099105835	pulse	0	t		-1.0	1.0	-1.0	136.0	0.0333333333333	0.1333333333333	0.0666666666667	311.3358018398285	
8	221.16619992256165	stim	0		0	-1.0	1.0	-1.0	152.0	0.0333333333333	0.1333333333333	0.0666666666667	311.36899185180664	16.002403020858765
8	221.22474193572998	response	0	b		-1.0	1.0	-1.0	152.0	0.0333333333333	0.1333333333333	0.0666666666667	311.427533864975	
8	222.73335599899292	pulse	0	t		-1.0	1.0	-1.0	152.0	0.0333333333333	0.1333333333333	0.0666666666667	312.9361479282379	
8	224.33355593681335	pulse	0	t		-1.0	1.0	-1.0	152.0	0.0333333333333	0.1333333333333	0.0666666666667	314.53634786605835	
8	225.9336187839508	pulse	0	t		-1.0	1.0	-1.0	152.0	0.0333333333333	0.1333333333333	0.0666666666667	316.1364107131958	
8	227.5340588092804	pulse	0	t		-1.0	1.0	-1.0	152.0	0.0333333333333	0.1333333333333	0.0666666666667	317.7368507385254	
8	228.12561893463135	response	0	b		-1.0	1.0	-1.0	152.0	0.0333333333333	0.1333333333333	0.0666666666667	318.32841086387634	
8	229.134174823761	pulse	0	t		-1.0	1.0	-1.0	152.0	0.0333333333333	0.1333333333333	0.0666666666667	319.336966753006	
8	230.7345278263092	pulse	0	t		-1.0	1.0	-1.0	152.0	0.0333333333333	0.1333333333333	0.0666666666667	320.9373197555542	
8	232.20118498802185	response	0	b		-1.0	1.0	-1.0	152.0	0.0333333333333	0.1333333333333	0.0666666666667	322.40397691726685	
8	232.3345968723297	pulse	0	t		-1.0	1.0	-1.0	152.0	0.0333333333333	0.1333333333333	0.0666666666667	322.5373888015747	
8	233.93489789962769	pulse	0	t		-1.0	1.0	-1.0	152.0	0.0333333333333	0.1333333333333	0.0666666666667	324.1376898288727	
8	235.5351448059082	pulse	0	t		-1.0	1.0	-1.0	152.0	0.0333333333333	0.1333333333333	0.0666666666667	325.7379367351532	
8	235.7035698890686	response	0	b		-1.0	1.0	-1.0	152.0	0.0333333333333	0.1333333333333	0.0666666666667	325.9063618183136	
8	237.13541388511658	pulse	0	t		-1.0	1.0	-1.0	152.0	0.0333333333333	0.1333333333333	0.0666666666667	327.3382058143616	
9	237.1686029434204	stim	0		0	0.16666667	0.0666666666667	180.0	168.0	0.0333333333333	0.1333333333333	0.0666666666667	327.3713948726654	24.003598928451538
9	238.72814798355103	pulse	0	t		0.16666667	0.0666666666667	180.0	168.0	0.0333333333333	0.1333333333333	0.0666666666667	328.930939912796	
9	240.3281970024109	pulse	0	t		0.16666667	0.0666666666667	180.0	168.0	0.0333333333333	0.1333333333333	0.0666666666667	330.5309889316559	
9	241.92820692062378	pulse	0	t		0.16666667	0.0666666666667	180.0	168.0	0.0333333333333	0.1333333333333	0.0666666666667	332.1309988498688	
9	243.5282018184662	pulse	0	t		0.16666667	0.0666666666667	180.0	168.0	0.0333333333333	0.1333333333333	0.0666666666667	333.7309937477112	
9	245.12834000587463	pulse	0	t		0.16666667	0.0666666666667	180.0	168.0	0.0333333333333	0.1333333333333	0.0666666666667	335.33113193511963	
9	246.7284059524536	pulse	0	t		0.16666667	0.0666666666667	180.0	168.0	0.0333333333333	0.1333333333333	0.0666666666667	336.9311978816986	
9	248.3283770084381	pulse	0	t		0.16666667	0.0666666666667	180.0	168.0	0.0333333333333	0.1333333333333	0.0666666666667	338.5311689376831	
9	248.46225690841675	response	0	b		0.16666667	0.0666666666667	180.0	168.0	0.0333333333333	0.1333333333333	0.0666666666667	338.66504883766174	
9	249.92833185195923	pulse	0	t		0.16666667	0.0666666666667	180.0	168.0	0.0333333333333	0.1333333333333	0.0666666666667	340.1311237812042	
9	251.52837491035461	pulse	0	t		0.16666667	0.0666666666667	180.0	168.0	0.0333333333333	0.1333333333333	0.0666666666667	341.7311668395996	
9	253.12843894958496	pulse	0	t		0.16666667	0.0666666666667	180.0	168.0	0.0333333333333	0.1333333333333	0.0666666666667	343.33123087882996	
9	253.2692677974701	response	0	b		0.16666667	0.0666666666667	180.0	168.0	0.0333333333333	0.1333333333333	0.0666666666667	343.4720597267151	
9	254.72841501235962	pulse	0	t		0.16666667	0.0666666666667	180.0	168.0	0.0333333333333	0.1333333333333	0.0666666666667	344.9312069416046	
9	256.3284568786621	pulse	0	t		0.16666667	0.0666666666667	180.0	168.0	0.0333333333333	0.1333333333333	0.0666666666667	346.5312488079071	
9	257.92845582962036	pulse	0	t		0.16666667	0.0666666666667	180.0	168.0	0.0333333333333	0.1333333333333	0.0666666666667	348.13124775886536	
9	259.52848982810974	pulse	0	t		0.16666667	0.0666666666667	180.0	168.0	0.0333333333333	0.1333333333333	0.0666666666667	349.73128175735474	
9	261.12851881980896	pulse	0	t		0.16666667	0.0666666666667	180.0	168.0	0.0333333333333	0.1333333333333	0.0666666666667	351.33131074905396	
10	261.17220187187195	stim	0		0	0.16666667	0.0666666666667	90.0	192.0	0.0333333333333	0.1333333333333	0.0666666666667	351.37499380111694	23.986963033676147
10	262.1284968852997	response	0	b		0.16666667	0.0666666666667	90.0	192.0	0.0333333333333	0.1333333333333	0.0666666666667	352.3312888145447	
10	262.7285249233246	pulse	0	t		0.16666667	0.0666666666667	90.0	192.0	0.0333333333333	0.1333333333333	0.0666666666667	352.9313168525696	
10	264.32845091819763	pulse	0	t		0.16666667	0.0666666666667	90.0	192.0	0.0333333333333	0.1333333333333	0.0666666666667	354.5312428474426	
10	265.9284818172455	pulse	0	t		0.16666667	0.0666666666667	90.0	192.0	0.0333333333333	0.1333333333333	0.0666666666667	356.1312737464905	
10	267.52861881256104	pulse	0	t		0.16666667	0.0666666666667	90.0	192.0	0.0333333333333	0.1333333333333	0.0666666666667	357.73141074180603	
10	269.1285138130188	pulse	0	t		0.16666667	0.0666666666667	90.0	192.0	0.0333333333333	0.1333333333333	0.0666666666667	359.3313057422638	
10	269.1893708705902	response	0	b		0.16666667	0.0666666666667	90.0	192.0	0.0333333333333	0.1333333333333	0.0666666666667	359.3921627998352	
10	270.72853779792786	pulse	0	t		0.16666667	0.0666666666667	90.0	192.0	0.0333333333333	0.1333333333333	0.0666666666667	360.93132972717285	
10	272.0324788093567	response	0	b		0.16666667	0.0666666666667	90.0	192.0	0.0333333333333	0.1333333333333	0.0666666666667	362.2352707386017	
10	272.3284649848938	pulse	0	t		0.16666667	0.0666666666667	90.0	192.0	0.0333333333333	0.1333333333333	0.0666666666667	362.5312569141388	
10	273.92854380607605	pulse	0	t		0.16666667	0.0666666666667	90.0	192.0	0.0333333333333	0.1333333333333	0.0666666666667	364.13133573532104	
10	275.52859687805176	pulse	0	t		0.16666667	0.0666666666667	90.0	192.0	0.0333333333333	0.1333333333333	0.0666666666667	365.73138880729675	
10	276.0725779533386	response	0	b		0.16666667	0.0666666666667	90.0	192.0	0.0333333333333	0.1333333333333	0.0666666666667	366.2753698825836	
10	277.1285870075226	pulse	0	t		0.16666667	0.0666666666667	90.0	192.0	0.0333333333333	0.1333333333333	0.0666666666667	367.3313789367676	
10	278.72860193252563	pulse	0	t		0.16666667	0.0666666666667	90.0	192.0	0.0333333333333	0.1333333333333	0.0666666666667	368.93139386177063	
10	280.32868695259094	pulse	0	t		0.16666667	0.0666666666667	90.0	192.0	0.0333333333333	0.1333333333333	0.0666666666667	370.53147888183594	
10	281.9286139011383	pulse	0	t		0.16666667	0.0666666666667	90.0	192.0	0.0333333333333	0.1333333333333	0.0666666666667	372.1314058303833	
10	283.52866291999817	pulse	0	t		0.16666667	0.0666666666667	90.0	192.0	0.0333333333333	0.1333333333333	0.0666666666667	373.73145484924316	
10	285.128643989563	pulse	0	t		0.16666667	0.0666666666667	90.0	192.0	0.0333333333333	0.1333333333333	0.0666666666667	375.331435918808	
11	285.1591649055481	stim	0		0	-1.0	1.0	-1.0	216.0	0.0333333333333	0.1333333333333	0.0666666666667	375.3619568347931	16.01072096824646
11	285.2449839115143	response	0	b		-1.0	1.0	-1.0	216.0	0.0333333333333	0.1333333333333	0.0666666666667	375.4477758407593	
11	286.73444986343384	pulse	0	t		-1.0	1.0	-1.0	216.0	0.0333333333333	0.1333333333333	0.0666666666667	376.93724179267883	
11	288.3346519470215	pulse	0	t		-1.0	1.0	-1.0	216.0	0.0333333333333	0.1333333333333	0.0666666666667	378.5374438762665	
11	289.9350199699402	pulse	0	t		-1.0	1.0	-1.0	216.0	0.0333333333333	0.1333333333333	0.0666666666667	380.1378118991852	
11	291.535218000412	pulse	0	t		-1.0	1.0	-1.0	216.0	0.0333333333333	0.1333333333333	0.0666666666667	381.738009929657	
11	293.12887597084045	pulse	0	t		-1.0	1.0	-1.0	216.0	0.0333333333333	0.1333333333333	0.0666666666667	383.33166790008545	
11	294.72908091545105	pulse	0	t		-1.0	1.0	-1.0	216.0	0.0333333333333	0.1333333333333	0.0666666666667	384.93187284469604	
11	296.32930994033813	pulse	0	t		-1.0	1.0	-1.0	216.0	0.0333333333333	0.1333333333333	0.0666666666667	386.53210186958313	
11	297.66934990882874	response	0	b		-1.0	1.0	-1.0	216.0	0.0333333333333	0.1333333333333	0.0666666666667	387.87214183807373	
11	297.9296898841858	pulse	0	t		-1.0	1.0	-1.0	216.0	0.0333333333333	0.1333333333333	0.0666666666667	388.1324818134308	
11	299.52990198135376	pulse	0	t		-1.0	1.0	-1.0	216.0	0.0333333333333	0.1333333333333	0.0666666666667	389.73269391059875	
11	299.62992095947266	response	0	b		-1.0	1.0	-1.0	216.0	0.0333333333333	0.1333333333333	0.0666666666667	389.83271288871765	
11	301.1302127838135	pulse	0	t		-1.0	1.0	-1.0	216.0	0.0333333333333	0.1333333333333	0.0666666666667	391.3330047130585	
12	301.16988587379456	stim	0		0	0.16666667	0.0666666666667	0.0	232.0	0.0333333333333	0.1333333333333	0.0666666666667	391.37267780303955	23.99519109725952
12	302.2489140033722	response	0	b		0.16666667	0.0666666666667	0.0	232.0	0.0333333333333	0.1333333333333	0.0666666666667	392.4517059326172	
12	302.72894978523254	pulse	0	t		0.16666667	0.0666666666667	0.0	232.0	0.0333333333333	0.1333333333333	0.0666666666667	392.93174171447754	
12	304.3289089202881	pulse	0	t		0.16666667	0.0666666666667	0.0	232.0	0.0333333333333	0.1333333333333	0.0666666666667	394.5317008495331	
12	305.9289379119873	pulse	0	t		0.16666667	0.0666666666667	0.0	232.0	0.0333333333333	0.1333333333333	0.0666666666667	396.1317298412323	
12	307.528963804245	pulse	0	t		0.16666667	0.0666666666667	0.0	232.0	0.0333333333333	0.1333333333333	0.0666666666667	397.73175573349	
12	307.9189908504486	response	0	b		0.16666667	0.0666666666667	0.0	232.0	0.0333333333333	0.1333333333333	0.0666666666667	398.1217827796936	
12	309.12898898124695	pulse	0	t		0.16666667	0.0666666666667	0.0	232.0	0.0333333333333	0.1333333333333	0.0666666666667	399.33178091049194	
12	309.9800808429718	response	0	b		0.16666667	0.0666666666667	0.0	232.0	0.0333333333333	0.1333333333333	0.0666666666667	400.1828727722168	
12	310.7290258407593	pulse	0	t		0.16666667	0.0666666666667	0.0	232.0	0.0333333333333	0.1333333333333	0.0666666666667	400.9318177700043	
12	312.32901978492737	pulse	0	t		0.16666667	0.0666666666667	0.0	232.0	0.0333333333333	0.1333333333333	0.0666666666667	402.53181171417236	
12	313.92906880378723	pulse	0	t		0.16666667	0.0666666666667	0.0	232.0	0.0333333333333	0.1333333333333	0.0666666666667	404.1318607330322	
12	314.47805094718933	response	0	b		0.16666667	0.0666666666667	0.0	232.0	0.0333333333333	0.1333333333333	0.0666666666667	404.6808428764343	
12	315.5291829109192	pulse	0	t		0.16666667	0.0666666666667	0.0	232.0	0.0333333333333	0.1333333333333	0.0666666666667	405.7319748401642	
12	316.59018993377686	response	0	b		0.16666667	0.0666666666667	0.0	232.0	0.0333333333333	0.1333333333333	0.0666666666667	406.79298186302185	
12	317.1290898323059	pulse	0	t		0.16666667	0.0666666666667	0.0	232.0	0.0333333333333	0.1333333333333	0.0666666666667	407.3318817615509	
12	318.6780869960785	response	0	b		0.16666667	0.0666666666667	0.0	232.0	0.0333333333333	0.1333333333333	0.0666666666667	408.8808789253235	
12	318.7290048599243	pulse	0	t		0.16666667	0.0666666666667	0.0	232.0	0.0333333333333	0.1333333333333	0.0666666666667	408.9317967891693	
12	320.32910895347595	pulse	0	t		0.16666667	0.0666666666667	0.0	232.0	0.0333333333333	0.1333333333333	0.0666666666667	410.53190088272095	
12	321.92916893959045	pulse	0	t		0.16666667	0.0666666666667	0.0	232.0	0.0333333333333	0.1333333333333	0.0666666666667	412.13196086883545	
12	323.5293138027191	pulse	0	t		0.16666667	0.0666666666667	0.0	232.0	0.0333333333333	0.1333333333333	0.0666666666667	413.7321057319641	
12	325.05729579925537	response	0	b		0.16666667	0.0666666666667	0.0	232.0	0.0333333333333	0.1333333333333	0.0666666666667	415.26008772850037	
12	325.12918281555176	pulse	0	t		0.16666667	0.0666666666667	0.0	232.0	0.0333333333333	0.1333333333333	0.0666666666667	415.33197474479675	
13	325.1650769710541	stim	0		0	0.16666667	0.0666666666667	270.0	256.0	0.0333333333333	0.1333333333333	0.0666666666667	415.3678689002991	24.003571033477783
13	326.7292377948761	pulse	0	t		0.16666667	0.0666666666667	270.0	256.0	0.0333333333333	0.1333333333333	0.0666666666667	416.9320297241211	
13	328.3292648792267	pulse	0	t		0.16666667	0.0666666666667	270.0	256.0	0.0333333333333	0.1333333333333	0.0666666666667	418.5320568084717	
13	329.92932987213135	pulse	0	t		0.16666667	0.0666666666667	270.0	256.0	0.0333333333333	0.1333333333333	0.0666666666667	420.13212180137634	
13	330.14017701148987	response	0	b		0.16666667	0.0666666666667	270.0	256.0	0.0333333333333	0.1333333333333	0.0666666666667	420.34296894073486	
13	331.529287815094	pulse	0	t		0.16666667	0.0666666666667	270.0	256.0	0.0333333333333	0.1333333333333	0.0666666666667	421.732079744339	
13	333.12929582595825	pulse	0	t		0.16666667	0.0666666666667	270.0	256.0	0.0333333333333	0.1333333333333	0.0666666666667	423.33208775520325	
13	333.4522919654846	response	0	b		0.16666667	0.0666666666667	270.0	256.0	0.0333333333333	0.1333333333333	0.0666666666667	423.6550838947296	
13	334.7283389568329	pulse	0	t		0.16666667	0.0666666666667	270.0	256.0	0.0333333333333	0.1333333333333	0.0666666666667	424.9311308860779	
13	335.98034381866455	response	0	b		0.16666667	0.0666666666667	270.0	256.0	0.0333333333333	0.1333333333333	0.0666666666667	426.18313574790955	
13	336.3283009529114	pulse	0	t		0.16666667	0.0666666666667	270.0	256.0	0.0333333333333	0.1333333333333	0.0666666666667	426.5310928821564	
13	337.9283838272095	pulse	0	t		0.16666667	0.0666666666667	270.0	256.0	0.0333333333333	0.1333333333333	0.0666666666667	428.13117575645447	
13	339.5284209251404	pulse	0	t		0.16666667	0.0666666666667	270.0	256.0	0.0333333333333	0.1333333333333	0.0666666666667	429.7312128543854	
13	339.78032088279724	response	0	b		0.16666667	0.0666666666667	270.0	256.0	0.0333333333333	0.1333333333333	0.0666666666667	429.98311281204224	
13	341.12842893600464	pulse	0	t		0.16666667	0.0666666666667	270.0	256.0	0.0333333333333	0.1333333333333	0.0666666666667	431.33122086524963	
13	342.7284429073334	pulse	0	t		0.16666667	0.0666666666667	270.0	256.0	0.0333333333333	0.1333333333333	0.0666666666667	432.93123483657837	
13	344.3283967971802	pulse	0	t		0.16666667	0.0666666666667	270.0	256.0	0.0333333333333	0.1333333333333	0.0666666666667	434.53118872642517	
13	345.9284157752991	pulse	0	t		0.16666667	0.0666666666667	270.0	256.0	0.0333333333333	0.1333333333333	0.0666666666667	436.13120770454407	
13	346.6714859008789	response	0	b		0.16666667	0.0666666666667	270.0	256.0	0.0333333333333	0.1333333333333	0.0666666666667	436.8742778301239	
13	347.52846789360046	pulse	0	t		0.16666667	0.0666666666667	270.0	256.0	0.0333333333333	0.1333333333333	0.0666666666667	437.73125982284546	
13	349.1285238265991	pulse	0	t		0.16666667	0.0666666666667	270.0	256.0	0.0333333333333	0.1333333333333	0.0666666666667	439.3313157558441	
14	349.16864800453186	stim	0		0								439.37143993377686	26.03731083869934
14	350.3857088088989	response	0	b									440.5885007381439	
14	350.72915387153625	pulse	0	t									440.93194580078125	
14	352.32939291000366	pulse	0	t									442.53218483924866	
14	353.0026319026947	response	0	b									443.2054238319397	
14	353.92967987060547	pulse	0	t									444.13247179985046	
14	355.52984380722046	pulse	0	t									445.73263573646545	
14	355.7967138290405	response	0	b									445.9995057582855	
14	357.1301348209381	pulse	0	t									447.3329267501831	
14	358.73040199279785	pulse	0	t									448.93319392204285	
14	360.3287208080292	pulse	0	t									450.53151273727417	
14	361.56230783462524	response	0	b									451.76509976387024	
14	361.9290030002594	pulse	0	t									452.1317949295044	
14	363.52925395965576	pulse	0	t									453.73204588890076	
14	365.12950897216797	pulse	0	t									455.33230090141296	
14	365.5295479297638	response	0	b									455.7323398590088	
14	366.72965478897095	pulse	0	t									456.93244671821594	
14	367.92348885536194	response	0	b									458.12628078460693	
14	368.32994389533997	pulse	0	t									458.53273582458496	
14	369.93013191223145	pulse	0	t									460.13292384147644	
14	371.32382583618164	response	0	b									461.52661776542664	
14	371.5305018424988	pulse	0	t									461.7332937717438	
14	373.1306297779083	pulse	0	t									463.3334217071533	
