trial_nr	onset	event_type	phase	response	nr_frames	bar_width	bar_refresh_time	bar_direction	start_time	bar_blank_duration	bar_blank_interval	bg_stim_refresh_time	onset_abs	duration
0	0.1750180721282959	stim	0		0								106.46659803390503	0.2582719326019287
0	0.4264688491821289	response	0	space									106.71804881095886	
1	0.4332900047302246	stim	0		0								106.72486996650696	37.617095947265625
1	38.03027105331421	pulse	0	t									144.32185101509094	
1	38.05038595199585	stim	1		0								144.34196591377258	0.0009779930114746094
1	38.051363945007324	stim	0		0								144.34294390678406	23.999392986297607
1	39.622596979141235	pulse	0	t									145.91417694091797	
1	41.22275495529175	pulse	0	t									147.51433491706848	
1	42.82306385040283	pulse	0	t									149.11464381217957	
1	43.45653295516968	response	0	b									149.7481129169464	
1	44.423332929611206	pulse	0	t									150.71491289138794	
1	46.02357888221741	pulse	0	t									152.31515884399414	
1	46.63186693191528	response	0	b									152.92344689369202	
1	47.623749017715454	pulse	0	t									153.9153289794922	
1	49.22400403022766	pulse	0	t									155.5155839920044	
1	50.824207067489624	pulse	0	t									157.11578702926636	
1	51.849385023117065	response	0	b									158.1409649848938	
1	52.424521923065186	pulse	0	t									158.71610188484192	
1	54.02478003501892	pulse	0	t									160.31635999679565	
1	55.62501096725464	pulse	0	t									161.91659092903137	
1	57.22511386871338	pulse	0	t									163.5166938304901	
1	58.758792877197266	response	0	b									165.050372838974	
1	58.82535004615784	pulse	0	t									165.11693000793457	
1	60.42569303512573	pulse	0	t									166.71727299690247	
1	61.14243006706238	response	0	b									167.4340100288391	
1	62.02587103843689	pulse	0	t									168.31745100021362	
2	62.05075693130493	stim	0		0	0.16666667	0.0666666666667	270.0	24.0	0.0333333333333	0.1333333333333	0.0666666666667	168.34233689308167	24.003588914871216
2	63.28125500679016	response	0	b		0.16666667	0.0666666666667	270.0	24.0	0.0333333333333	0.1333333333333	0.0666666666667	169.5728349685669	
2	63.62015104293823	pulse	0	t		0.16666667	0.0666666666667	270.0	24.0	0.0333333333333	0.1333333333333	0.0666666666667	169.91173100471497	
2	65.22022700309753	pulse	0	t		0.16666667	0.0666666666667	270.0	24.0	0.0333333333333	0.1333333333333	0.0666666666667	171.51180696487427	
2	66.82026886940002	pulse	0	t		0.16666667	0.0666666666667	270.0	24.0	0.0333333333333	0.1333333333333	0.0666666666667	173.11184883117676	
2	67.38421392440796	response	0	b		0.16666667	0.0666666666667	270.0	24.0	0.0333333333333	0.1333333333333	0.0666666666667	173.6757938861847	
2	68.42017889022827	pulse	0	t		0.16666667	0.0666666666667	270.0	24.0	0.0333333333333	0.1333333333333	0.0666666666667	174.711758852005	
2	69.8202178478241	response	0	b		0.16666667	0.0666666666667	270.0	24.0	0.0333333333333	0.1333333333333	0.0666666666667	176.11179780960083	
2	70.02014994621277	pulse	0	t		0.16666667	0.0666666666667	270.0	24.0	0.0333333333333	0.1333333333333	0.0666666666667	176.3117299079895	
2	71.62023687362671	pulse	0	t		0.16666667	0.0666666666667	270.0	24.0	0.0333333333333	0.1333333333333	0.0666666666667	177.91181683540344	
2	72.38580989837646	response	0	b		0.16666667	0.0666666666667	270.0	24.0	0.0333333333333	0.1333333333333	0.0666666666667	178.6773898601532	
2	73.220223903656	pulse	0	t		0.16666667	0.0666666666667	270.0	24.0	0.0333333333333	0.1333333333333	0.0666666666667	179.51180386543274	
2	74.82030701637268	pulse	0	t		0.16666667	0.0666666666667	270.0	24.0	0.0333333333333	0.1333333333333	0.0666666666667	181.1118869781494	
2	76.39835786819458	response	0	b		0.16666667	0.0666666666667	270.0	24.0	0.0333333333333	0.1333333333333	0.0666666666667	182.6899378299713	
2	76.42016100883484	pulse	0	t		0.16666667	0.0666666666667	270.0	24.0	0.0333333333333	0.1333333333333	0.0666666666667	182.71174097061157	
2	78.0202989578247	pulse	0	t		0.16666667	0.0666666666667	270.0	24.0	0.0333333333333	0.1333333333333	0.0666666666667	184.31187891960144	
2	79.39928984642029	response	0	b		0.16666667	0.0666666666667	270.0	24.0	0.0333333333333	0.1333333333333	0.0666666666667	185.69086980819702	
2	79.62018895149231	pulse	0	t		0.16666667	0.0666666666667	270.0	24.0	0.0333333333333	0.1333333333333	0.0666666666667	185.91176891326904	
2	81.22037291526794	pulse	0	t		0.16666667	0.0666666666667	270.0	24.0	0.0333333333333	0.1333333333333	0.0666666666667	187.51195287704468	
2	82.8203399181366	pulse	0	t		0.16666667	0.0666666666667	270.0	24.0	0.0333333333333	0.1333333333333	0.0666666666667	189.11191987991333	
2	84.07236099243164	response	0	b		0.16666667	0.0666666666667	270.0	24.0	0.0333333333333	0.1333333333333	0.0666666666667	190.36394095420837	
2	84.42027592658997	pulse	0	t		0.16666667	0.0666666666667	270.0	24.0	0.0333333333333	0.1333333333333	0.0666666666667	190.7118558883667	
2	86.02046704292297	pulse	0	t		0.16666667	0.0666666666667	270.0	24.0	0.0333333333333	0.1333333333333	0.0666666666667	192.3120470046997	
3	86.05434584617615	stim	0		0	0.16666667	0.0666666666667	0.0	48.0	0.0333333333333	0.1333333333333	0.0666666666667	192.34592580795288	24.00363302230835
3	87.61645603179932	response	0	b		0.16666667	0.0666666666667	0.0	48.0	0.0333333333333	0.1333333333333	0.0666666666667	193.90803599357605	
3	87.6202700138092	pulse	0	t		0.16666667	0.0666666666667	0.0	48.0	0.0333333333333	0.1333333333333	0.0666666666667	193.91184997558594	
3	89.2204258441925	pulse	0	t		0.16666667	0.0666666666667	0.0	48.0	0.0333333333333	0.1333333333333	0.0666666666667	195.51200580596924	
3	90.8204698562622	pulse	0	t		0.16666667	0.0666666666667	0.0	48.0	0.0333333333333	0.1333333333333	0.0666666666667	197.11204981803894	
3	92.42050790786743	pulse	0	t		0.16666667	0.0666666666667	0.0	48.0	0.0333333333333	0.1333333333333	0.0666666666667	198.71208786964417	
3	93.47855401039124	response	0	b		0.16666667	0.0666666666667	0.0	48.0	0.0333333333333	0.1333333333333	0.0666666666667	199.77013397216797	
3	94.02048087120056	pulse	0	t		0.16666667	0.0666666666667	0.0	48.0	0.0333333333333	0.1333333333333	0.0666666666667	200.3120608329773	
3	95.6205370426178	pulse	0	t		0.16666667	0.0666666666667	0.0	48.0	0.0333333333333	0.1333333333333	0.0666666666667	201.91211700439453	
3	97.22055792808533	pulse	0	t		0.16666667	0.0666666666667	0.0	48.0	0.0333333333333	0.1333333333333	0.0666666666667	203.51213788986206	
3	98.82058501243591	pulse	0	t		0.16666667	0.0666666666667	0.0	48.0	0.0333333333333	0.1333333333333	0.0666666666667	205.11216497421265	
3	100.42058300971985	pulse	0	t		0.16666667	0.0666666666667	0.0	48.0	0.0333333333333	0.1333333333333	0.0666666666667	206.71216297149658	
3	101.96364188194275	response	0	b		0.16666667	0.0666666666667	0.0	48.0	0.0333333333333	0.1333333333333	0.0666666666667	208.25522184371948	
3	102.02049899101257	pulse	0	t		0.16666667	0.0666666666667	0.0	48.0	0.0333333333333	0.1333333333333	0.0666666666667	208.3120789527893	
3	103.6206488609314	pulse	0	t		0.16666667	0.0666666666667	0.0	48.0	0.0333333333333	0.1333333333333	0.0666666666667	209.91222882270813	
3	105.09568095207214	response	0	b		0.16666667	0.0666666666667	0.0	48.0	0.0333333333333	0.1333333333333	0.0666666666667	211.38726091384888	
3	105.21953988075256	pulse	0	t		0.16666667	0.0666666666667	0.0	48.0	0.0333333333333	0.1333333333333	0.0666666666667	211.5111198425293	
3	106.81970691680908	pulse	0	t		0.16666667	0.0666666666667	0.0	48.0	0.0333333333333	0.1333333333333	0.0666666666667	213.11128687858582	
3	108.41970300674438	pulse	0	t		0.16666667	0.0666666666667	0.0	48.0	0.0333333333333	0.1333333333333	0.0666666666667	214.71128296852112	
3	108.44960904121399	response	0	b		0.16666667	0.0666666666667	0.0	48.0	0.0333333333333	0.1333333333333	0.0666666666667	214.74118900299072	
3	110.01970100402832	pulse	0	t		0.16666667	0.0666666666667	0.0	48.0	0.0333333333333	0.1333333333333	0.0666666666667	216.31128096580505	
4	110.0579788684845	stim	0		0	-1.0	1.0	-1.0	72.0	0.0333333333333	0.1333333333333	0.0666666666667	216.34955883026123	15.994057178497314
4	111.32492589950562	response	0	b		-1.0	1.0	-1.0	72.0	0.0333333333333	0.1333333333333	0.0666666666667	217.61650586128235	
4	111.624990940094	pulse	0	t		-1.0	1.0	-1.0	72.0	0.0333333333333	0.1333333333333	0.0666666666667	217.91657090187073	
4	113.2252049446106	pulse	0	t		-1.0	1.0	-1.0	72.0	0.0333333333333	0.1333333333333	0.0666666666667	219.51678490638733	
4	113.44183492660522	response	0	b		-1.0	1.0	-1.0	72.0	0.0333333333333	0.1333333333333	0.0666666666667	219.73341488838196	
4	114.82546806335449	pulse	0	t		-1.0	1.0	-1.0	72.0	0.0333333333333	0.1333333333333	0.0666666666667	221.11704802513123	
4	116.42567491531372	pulse	0	t		-1.0	1.0	-1.0	72.0	0.0333333333333	0.1333333333333	0.0666666666667	222.71725487709045	
4	117.45922303199768	response	0	b		-1.0	1.0	-1.0	72.0	0.0333333333333	0.1333333333333	0.0666666666667	223.7508029937744	
4	118.02584290504456	pulse	0	t		-1.0	1.0	-1.0	72.0	0.0333333333333	0.1333333333333	0.0666666666667	224.3174228668213	
4	119.62616205215454	pulse	0	t		-1.0	1.0	-1.0	72.0	0.0333333333333	0.1333333333333	0.0666666666667	225.91774201393127	
4	121.21975207328796	pulse	0	t		-1.0	1.0	-1.0	72.0	0.0333333333333	0.1333333333333	0.0666666666667	227.5113320350647	
4	121.37636399269104	response	0	b		-1.0	1.0	-1.0	72.0	0.0333333333333	0.1333333333333	0.0666666666667	227.66794395446777	
4	122.8200249671936	pulse	0	t		-1.0	1.0	-1.0	72.0	0.0333333333333	0.1333333333333	0.0666666666667	229.11160492897034	
4	124.42025899887085	pulse	0	t		-1.0	1.0	-1.0	72.0	0.0333333333333	0.1333333333333	0.0666666666667	230.71183896064758	
4	126.02043294906616	pulse	0	t		-1.0	1.0	-1.0	72.0	0.0333333333333	0.1333333333333	0.0666666666667	232.3120129108429	
5	126.05203604698181	stim	0		0	0.16666667	0.0666666666667	90.0	88.0	0.0333333333333	0.1333333333333	0.0666666666667	232.34361600875854	23.995167016983032
5	126.23495292663574	response	0	b		0.16666667	0.0666666666667	90.0	88.0	0.0333333333333	0.1333333333333	0.0666666666667	232.52653288841248	
5	127.61995697021484	pulse	0	t		0.16666667	0.0666666666667	90.0	88.0	0.0333333333333	0.1333333333333	0.0666666666667	233.91153693199158	
5	128.4229860305786	response	0	b		0.16666667	0.0666666666667	90.0	88.0	0.0333333333333	0.1333333333333	0.0666666666667	234.71456599235535	
5	129.21994590759277	pulse	0	t		0.16666667	0.0666666666667	90.0	88.0	0.0333333333333	0.1333333333333	0.0666666666667	235.5115258693695	
5	130.82004189491272	pulse	0	t		0.16666667	0.0666666666667	90.0	88.0	0.0333333333333	0.1333333333333	0.0666666666667	237.11162185668945	
5	132.20896887779236	response	0	b		0.16666667	0.0666666666667	90.0	88.0	0.0333333333333	0.1333333333333	0.0666666666667	238.5005488395691	
5	132.41981196403503	pulse	0	t		0.16666667	0.0666666666667	90.0	88.0	0.0333333333333	0.1333333333333	0.0666666666667	238.71139192581177	
5	134.02002501487732	pulse	0	t		0.16666667	0.0666666666667	90.0	88.0	0.0333333333333	0.1333333333333	0.0666666666667	240.31160497665405	
5	135.62003087997437	pulse	0	t		0.16666667	0.0666666666667	90.0	88.0	0.0333333333333	0.1333333333333	0.0666666666667	241.9116108417511	
5	136.96403694152832	response	0	b		0.16666667	0.0666666666667	90.0	88.0	0.0333333333333	0.1333333333333	0.0666666666667	243.25561690330505	
5	137.2199728488922	pulse	0	t		0.16666667	0.0666666666667	90.0	88.0	0.0333333333333	0.1333333333333	0.0666666666667	243.51155281066895	
5	138.8202040195465	pulse	0	t		0.16666667	0.0666666666667	90.0	88.0	0.0333333333333	0.1333333333333	0.0666666666667	245.11178398132324	
5	139.65717196464539	response	0	b		0.16666667	0.0666666666667	90.0	88.0	0.0333333333333	0.1333333333333	0.0666666666667	245.94875192642212	
5	140.4201910495758	pulse	0	t		0.16666667	0.0666666666667	90.0	88.0	0.0333333333333	0.1333333333333	0.0666666666667	246.71177101135254	
5	142.02024698257446	pulse	0	t		0.16666667	0.0666666666667	90.0	88.0	0.0333333333333	0.1333333333333	0.0666666666667	248.3118269443512	
5	143.62011790275574	pulse	0	t		0.16666667	0.0666666666667	90.0	88.0	0.0333333333333	0.1333333333333	0.0666666666667	249.91169786453247	
5	145.22015190124512	pulse	0	t		0.16666667	0.0666666666667	90.0	88.0	0.0333333333333	0.1333333333333	0.0666666666667	251.51173186302185	
5	146.82012104988098	pulse	0	t		0.16666667	0.0666666666667	90.0	88.0	0.0333333333333	0.1333333333333	0.0666666666667	253.11170101165771	
5	148.4201798439026	pulse	0	t		0.16666667	0.0666666666667	90.0	88.0	0.0333333333333	0.1333333333333	0.0666666666667	254.71175980567932	
5	148.94914984703064	response	0	b		0.16666667	0.0666666666667	90.0	88.0	0.0333333333333	0.1333333333333	0.0666666666667	255.24072980880737	
5	150.02017903327942	pulse	0	t		0.16666667	0.0666666666667	90.0	88.0	0.0333333333333	0.1333333333333	0.0666666666667	256.31175899505615	
6	150.04720306396484	stim	0		0	0.16666667	0.0666666666667	180.0	112.0	0.0333333333333	0.1333333333333	0.0666666666667	256.3387830257416	24.011895895004272
6	151.62020802497864	pulse	0	t		0.16666667	0.0666666666667	180.0	112.0	0.0333333333333	0.1333333333333	0.0666666666667	257.91178798675537	
6	152.97225189208984	response	0	b		0.16666667	0.0666666666667	180.0	112.0	0.0333333333333	0.1333333333333	0.0666666666667	259.2638318538666	
6	153.22014093399048	pulse	0	t		0.16666667	0.0666666666667	180.0	112.0	0.0333333333333	0.1333333333333	0.0666666666667	259.5117208957672	
6	154.82028889656067	pulse	0	t		0.16666667	0.0666666666667	180.0	112.0	0.0333333333333	0.1333333333333	0.0666666666667	261.1118688583374	
6	156.11127185821533	response	0	b		0.16666667	0.0666666666667	180.0	112.0	0.0333333333333	0.1333333333333	0.0666666666667	262.40285181999207	
6	156.420175075531	pulse	0	t		0.16666667	0.0666666666667	180.0	112.0	0.0333333333333	0.1333333333333	0.0666666666667	262.71175503730774	
6	158.0202820301056	pulse	0	t		0.16666667	0.0666666666667	180.0	112.0	0.0333333333333	0.1333333333333	0.0666666666667	264.3118619918823	
6	159.62032103538513	pulse	0	t		0.16666667	0.0666666666667	180.0	112.0	0.0333333333333	0.1333333333333	0.0666666666667	265.91190099716187	
6	161.2203390598297	pulse	0	t		0.16666667	0.0666666666667	180.0	112.0	0.0333333333333	0.1333333333333	0.0666666666667	267.51191902160645	
6	161.44907188415527	response	0	b		0.16666667	0.0666666666667	180.0	112.0	0.0333333333333	0.1333333333333	0.0666666666667	267.740651845932	
6	162.8203480243683	pulse	0	t		0.16666667	0.0666666666667	180.0	112.0	0.0333333333333	0.1333333333333	0.0666666666667	269.111927986145	
6	164.42042994499207	pulse	0	t		0.16666667	0.0666666666667	180.0	112.0	0.0333333333333	0.1333333333333	0.0666666666667	270.7120099067688	
6	166.02041292190552	pulse	0	t		0.16666667	0.0666666666667	180.0	112.0	0.0333333333333	0.1333333333333	0.0666666666667	272.31199288368225	
6	167.62039303779602	pulse	0	t		0.16666667	0.0666666666667	180.0	112.0	0.0333333333333	0.1333333333333	0.0666666666667	273.91197299957275	
6	168.22246599197388	response	0	b		0.16666667	0.0666666666667	180.0	112.0	0.0333333333333	0.1333333333333	0.0666666666667	274.5140459537506	
6	169.22045493125916	pulse	0	t		0.16666667	0.0666666666667	180.0	112.0	0.0333333333333	0.1333333333333	0.0666666666667	275.5120348930359	
6	170.82041192054749	pulse	0	t		0.16666667	0.0666666666667	180.0	112.0	0.0333333333333	0.1333333333333	0.0666666666667	277.1119918823242	
6	170.96531701087952	response	0	b		0.16666667	0.0666666666667	180.0	112.0	0.0333333333333	0.1333333333333	0.0666666666667	277.25689697265625	
6	172.4204659461975	pulse	0	t		0.16666667	0.0666666666667	180.0	112.0	0.0333333333333	0.1333333333333	0.0666666666667	278.71204590797424	
6	174.0204758644104	pulse	0	t		0.16666667	0.0666666666667	180.0	112.0	0.0333333333333	0.1333333333333	0.0666666666667	280.31205582618713	
7	174.05909895896912	stim	0		0	-1.0	1.0	-1.0	136.0	0.0333333333333	0.1333333333333	0.0666666666667	280.35067892074585	15.994079113006592
7	174.55945801734924	response	0	b		-1.0	1.0	-1.0	136.0	0.0333333333333	0.1333333333333	0.0666666666667	280.851037979126	
7	175.6262378692627	pulse	0	t		-1.0	1.0	-1.0	136.0	0.0333333333333	0.1333333333333	0.0666666666667	281.91781783103943	
7	176.95142889022827	response	0	b		-1.0	1.0	-1.0	136.0	0.0333333333333	0.1333333333333	0.0666666666667	283.243008852005	
7	177.22641491889954	pulse	0	t		-1.0	1.0	-1.0	136.0	0.0333333333333	0.1333333333333	0.0666666666667	283.51799488067627	
7	178.8265688419342	pulse	0	t		-1.0	1.0	-1.0	136.0	0.0333333333333	0.1333333333333	0.0666666666667	285.11814880371094	
7	179.09336686134338	response	0	b		-1.0	1.0	-1.0	136.0	0.0333333333333	0.1333333333333	0.0666666666667	285.3849468231201	
7	180.42695999145508	pulse	0	t		-1.0	1.0	-1.0	136.0	0.0333333333333	0.1333333333333	0.0666666666667	286.7185399532318	
7	181.18537998199463	response	0	b		-1.0	1.0	-1.0	136.0	0.0333333333333	0.1333333333333	0.0666666666667	287.47695994377136	
7	182.02048993110657	pulse	0	t		-1.0	1.0	-1.0	136.0	0.0333333333333	0.1333333333333	0.0666666666667	288.3120698928833	
7	183.62068486213684	pulse	0	t		-1.0	1.0	-1.0	136.0	0.0333333333333	0.1333333333333	0.0666666666667	289.9122648239136	
7	184.21919798851013	response	0	b		-1.0	1.0	-1.0	136.0	0.0333333333333	0.1333333333333	0.0666666666667	290.51077795028687	
7	185.22102284431458	pulse	0	t		-1.0	1.0	-1.0	136.0	0.0333333333333	0.1333333333333	0.0666666666667	291.5126028060913	
7	186.82120299339294	pulse	0	t		-1.0	1.0	-1.0	136.0	0.0333333333333	0.1333333333333	0.0666666666667	293.1127829551697	
7	188.42138290405273	pulse	0	t		-1.0	1.0	-1.0	136.0	0.0333333333333	0.1333333333333	0.0666666666667	294.71296286582947	
7	188.91156101226807	response	0	b		-1.0	1.0	-1.0	136.0	0.0333333333333	0.1333333333333	0.0666666666667	295.2031409740448	
7	190.02179884910583	pulse	0	t		-1.0	1.0	-1.0	136.0	0.0333333333333	0.1333333333333	0.0666666666667	296.31337881088257	
8	190.0531780719757	stim	0		0	-1.0	1.0	-1.0	152.0	0.0333333333333	0.1333333333333	0.0666666666667	296.34475803375244	16.00238800048828
8	191.62199687957764	pulse	0	t		-1.0	1.0	-1.0	152.0	0.0333333333333	0.1333333333333	0.0666666666667	297.91357684135437	
8	192.9372320175171	response	0	b		-1.0	1.0	-1.0	152.0	0.0333333333333	0.1333333333333	0.0666666666667	299.2288119792938	
8	193.22223496437073	pulse	0	t		-1.0	1.0	-1.0	152.0	0.0333333333333	0.1333333333333	0.0666666666667	299.51381492614746	
8	194.8223578929901	pulse	0	t		-1.0	1.0	-1.0	152.0	0.0333333333333	0.1333333333333	0.0666666666667	301.11393785476685	
8	196.42089295387268	pulse	0	t		-1.0	1.0	-1.0	152.0	0.0333333333333	0.1333333333333	0.0666666666667	302.7124729156494	
8	197.64621901512146	response	0	b		-1.0	1.0	-1.0	152.0	0.0333333333333	0.1333333333333	0.0666666666667	303.9377989768982	
8	198.02112293243408	pulse	0	t		-1.0	1.0	-1.0	152.0	0.0333333333333	0.1333333333333	0.0666666666667	304.3127028942108	
8	199.62147092819214	pulse	0	t		-1.0	1.0	-1.0	152.0	0.0333333333333	0.1333333333333	0.0666666666667	305.9130508899689	
8	200.61320090293884	response	0	b		-1.0	1.0	-1.0	152.0	0.0333333333333	0.1333333333333	0.0666666666667	306.9047808647156	
8	201.22167801856995	pulse	0	t		-1.0	1.0	-1.0	152.0	0.0333333333333	0.1333333333333	0.0666666666667	307.5132579803467	
8	202.82184600830078	pulse	0	t		-1.0	1.0	-1.0	152.0	0.0333333333333	0.1333333333333	0.0666666666667	309.1134259700775	
8	203.2303159236908	response	0	b		-1.0	1.0	-1.0	152.0	0.0333333333333	0.1333333333333	0.0666666666667	309.52189588546753	
8	204.422101020813	pulse	0	t		-1.0	1.0	-1.0	152.0	0.0333333333333	0.1333333333333	0.0666666666667	310.7136809825897	
8	206.02241587638855	pulse	0	t		-1.0	1.0	-1.0	152.0	0.0333333333333	0.1333333333333	0.0666666666667	312.3139958381653	
9	206.055566072464	stim	0		0	0.16666667	0.0666666666667	180.0	168.0	0.0333333333333	0.1333333333333	0.0666666666667	312.3471460342407	24.00359797477722
9	206.0607500076294	response	0	b		0.16666667	0.0666666666667	180.0	168.0	0.0333333333333	0.1333333333333	0.0666666666667	312.3523299694061	
9	207.61990690231323	pulse	0	t		0.16666667	0.0666666666667	180.0	168.0	0.0333333333333	0.1333333333333	0.0666666666667	313.91148686408997	
9	209.2199490070343	pulse	0	t		0.16666667	0.0666666666667	180.0	168.0	0.0333333333333	0.1333333333333	0.0666666666667	315.51152896881104	
9	210.4369080066681	response	0	b		0.16666667	0.0666666666667	180.0	168.0	0.0333333333333	0.1333333333333	0.0666666666667	316.7284879684448	
9	210.8199019432068	pulse	0	t		0.16666667	0.0666666666667	180.0	168.0	0.0333333333333	0.1333333333333	0.0666666666667	317.1114819049835	
9	212.42007684707642	pulse	0	t		0.16666667	0.0666666666667	180.0	168.0	0.0333333333333	0.1333333333333	0.0666666666667	318.71165680885315	
9	212.97610998153687	response	0	b		0.16666667	0.0666666666667	180.0	168.0	0.0333333333333	0.1333333333333	0.0666666666667	319.2676899433136	
9	214.02004194259644	pulse	0	t		0.16666667	0.0666666666667	180.0	168.0	0.0333333333333	0.1333333333333	0.0666666666667	320.31162190437317	
9	215.62012386322021	pulse	0	t		0.16666667	0.0666666666667	180.0	168.0	0.0333333333333	0.1333333333333	0.0666666666667	321.91170382499695	
9	217.22011303901672	pulse	0	t		0.16666667	0.0666666666667	180.0	168.0	0.0333333333333	0.1333333333333	0.0666666666667	323.51169300079346	
9	217.6610288619995	response	0	b		0.16666667	0.0666666666667	180.0	168.0	0.0333333333333	0.1333333333333	0.0666666666667	323.95260882377625	
9	218.8201389312744	pulse	0	t		0.16666667	0.0666666666667	180.0	168.0	0.0333333333333	0.1333333333333	0.0666666666667	325.11171889305115	
9	220.42013096809387	pulse	0	t		0.16666667	0.0666666666667	180.0	168.0	0.0333333333333	0.1333333333333	0.0666666666667	326.7117109298706	
9	222.02019691467285	pulse	0	t		0.16666667	0.0666666666667	180.0	168.0	0.0333333333333	0.1333333333333	0.0666666666667	328.3117768764496	
9	223.30105900764465	response	0	b		0.16666667	0.0666666666667	180.0	168.0	0.0333333333333	0.1333333333333	0.0666666666667	329.5926389694214	
9	223.61994886398315	pulse	0	t		0.16666667	0.0666666666667	180.0	168.0	0.0333333333333	0.1333333333333	0.0666666666667	329.9115288257599	
9	225.22007393836975	pulse	0	t		0.16666667	0.0666666666667	180.0	168.0	0.0333333333333	0.1333333333333	0.0666666666667	331.5116539001465	
9	226.82012391090393	pulse	0	t		0.16666667	0.0666666666667	180.0	168.0	0.0333333333333	0.1333333333333	0.0666666666667	333.11170387268066	
9	227.65609884262085	response	0	b		0.16666667	0.0666666666667	180.0	168.0	0.0333333333333	0.1333333333333	0.0666666666667	333.9476788043976	
9	228.42012190818787	pulse	0	t		0.16666667	0.0666666666667	180.0	168.0	0.0333333333333	0.1333333333333	0.0666666666667	334.7117018699646	
9	230.02009892463684	pulse	0	t		0.16666667	0.0666666666667	180.0	168.0	0.0333333333333	0.1333333333333	0.0666666666667	336.3116788864136	
10	230.0591640472412	stim	0		0	0.16666667	0.0666666666667	90.0	192.0	0.0333333333333	0.1333333333333	0.0666666666667	336.35074400901794	23.986941814422607
10	231.62017393112183	pulse	0	t		0.16666667	0.0666666666667	90.0	192.0	0.0333333333333	0.1333333333333	0.0666666666667	337.91175389289856	
10	233.22019696235657	pulse	0	t		0.16666667	0.0666666666667	90.0	192.0	0.0333333333333	0.1333333333333	0.0666666666667	339.5117769241333	
10	234.820209980011	pulse	0	t		0.16666667	0.0666666666667	90.0	192.0	0.0333333333333	0.1333333333333	0.0666666666667	341.1117899417877	
10	235.85193490982056	response	0	b		0.16666667	0.0666666666667	90.0	192.0	0.0333333333333	0.1333333333333	0.0666666666667	342.1435148715973	
10	236.42014384269714	pulse	0	t		0.16666667	0.0666666666667	90.0	192.0	0.0333333333333	0.1333333333333	0.0666666666667	342.7117238044739	
10	238.02024507522583	pulse	0	t		0.16666667	0.0666666666667	90.0	192.0	0.0333333333333	0.1333333333333	0.0666666666667	344.31182503700256	
10	238.11881685256958	response	0	b		0.16666667	0.0666666666667	90.0	192.0	0.0333333333333	0.1333333333333	0.0666666666667	344.4103968143463	
10	239.62025094032288	pulse	0	t		0.16666667	0.0666666666667	90.0	192.0	0.0333333333333	0.1333333333333	0.0666666666667	345.9118309020996	
10	240.44020700454712	response	0	b		0.16666667	0.0666666666667	90.0	192.0	0.0333333333333	0.1333333333333	0.0666666666667	346.73178696632385	
10	241.2202169895172	pulse	0	t		0.16666667	0.0666666666667	90.0	192.0	0.0333333333333	0.1333333333333	0.0666666666667	347.51179695129395	
10	242.82028698921204	pulse	0	t		0.16666667	0.0666666666667	90.0	192.0	0.0333333333333	0.1333333333333	0.0666666666667	349.11186695098877	
10	244.4203188419342	pulse	0	t		0.16666667	0.0666666666667	90.0	192.0	0.0333333333333	0.1333333333333	0.0666666666667	350.71189880371094	
10	246.0203549861908	pulse	0	t		0.16666667	0.0666666666667	90.0	192.0	0.0333333333333	0.1333333333333	0.0666666666667	352.31193494796753	
10	247.62035202980042	pulse	0	t		0.16666667	0.0666666666667	90.0	192.0	0.0333333333333	0.1333333333333	0.0666666666667	353.91193199157715	
10	249.22038507461548	pulse	0	t		0.16666667	0.0666666666667	90.0	192.0	0.0333333333333	0.1333333333333	0.0666666666667	355.5119650363922	
10	250.81234788894653	response	0	b		0.16666667	0.0666666666667	90.0	192.0	0.0333333333333	0.1333333333333	0.0666666666667	357.10392785072327	
10	250.8201789855957	pulse	0	t		0.16666667	0.0666666666667	90.0	192.0	0.0333333333333	0.1333333333333	0.0666666666667	357.11175894737244	
10	252.4204180240631	pulse	0	t		0.16666667	0.0666666666667	90.0	192.0	0.0333333333333	0.1333333333333	0.0666666666667	358.71199798583984	
10	254.02043986320496	pulse	0	t		0.16666667	0.0666666666667	90.0	192.0	0.0333333333333	0.1333333333333	0.0666666666667	360.3120198249817	
11	254.04610586166382	stim	0		0	-1.0	1.0	-1.0	216.0	0.0333333333333	0.1333333333333	0.0666666666667	360.33768582344055	16.010682106018066
11	254.9631450176239	response	0	b		-1.0	1.0	-1.0	216.0	0.0333333333333	0.1333333333333	0.0666666666667	361.25472497940063	
11	255.62143993377686	pulse	0	t		-1.0	1.0	-1.0	216.0	0.0333333333333	0.1333333333333	0.0666666666667	361.9130198955536	
11	257.2216489315033	pulse	0	t		-1.0	1.0	-1.0	216.0	0.0333333333333	0.1333333333333	0.0666666666667	363.51322889328003	
11	258.35524702072144	response	0	b		-1.0	1.0	-1.0	216.0	0.0333333333333	0.1333333333333	0.0666666666667	364.64682698249817	
11	258.82192301750183	pulse	0	t		-1.0	1.0	-1.0	216.0	0.0333333333333	0.1333333333333	0.0666666666667	365.11350297927856	
11	260.42213892936707	pulse	0	t		-1.0	1.0	-1.0	216.0	0.0333333333333	0.1333333333333	0.0666666666667	366.7137188911438	
11	261.23899507522583	response	0	b		-1.0	1.0	-1.0	216.0	0.0333333333333	0.1333333333333	0.0666666666667	367.53057503700256	
11	262.0223879814148	pulse	0	t		-1.0	1.0	-1.0	216.0	0.0333333333333	0.1333333333333	0.0666666666667	368.3139679431915	
11	263.6225860118866	pulse	0	t		-1.0	1.0	-1.0	216.0	0.0333333333333	0.1333333333333	0.0666666666667	369.91416597366333	
11	265.22289204597473	pulse	0	t		-1.0	1.0	-1.0	216.0	0.0333333333333	0.1333333333333	0.0666666666667	371.51447200775146	
11	266.3997709751129	response	0	b		-1.0	1.0	-1.0	216.0	0.0333333333333	0.1333333333333	0.0666666666667	372.69135093688965	
11	266.8231930732727	pulse	0	t		-1.0	1.0	-1.0	216.0	0.0333333333333	0.1333333333333	0.0666666666667	373.11477303504944	
11	268.4234628677368	pulse	0	t		-1.0	1.0	-1.0	216.0	0.0333333333333	0.1333333333333	0.0666666666667	374.71504282951355	
11	269.2067358493805	response	0	b		-1.0	1.0	-1.0	216.0	0.0333333333333	0.1333333333333	0.0666666666667	375.4983158111572	
11	270.0235769748688	pulse	0	t		-1.0	1.0	-1.0	216.0	0.0333333333333	0.1333333333333	0.0666666666667	376.3151569366455	
12	270.0567879676819	stim	0		0	0.16666667	0.0666666666667	0.0	232.0	0.0333333333333	0.1333333333333	0.0666666666667	376.3483679294586	23.986860036849976
12	271.6206319332123	pulse	0	t		0.16666667	0.0666666666667	0.0	232.0	0.0333333333333	0.1333333333333	0.0666666666667	377.912211894989	
12	273.06466794013977	response	0	b		0.16666667	0.0666666666667	0.0	232.0	0.0333333333333	0.1333333333333	0.0666666666667	379.3562479019165	
12	273.2205159664154	pulse	0	t		0.16666667	0.0666666666667	0.0	232.0	0.0333333333333	0.1333333333333	0.0666666666667	379.51209592819214	
12	274.8206799030304	pulse	0	t		0.16666667	0.0666666666667	0.0	232.0	0.0333333333333	0.1333333333333	0.0666666666667	381.11225986480713	
12	276.4207389354706	pulse	0	t		0.16666667	0.0666666666667	0.0	232.0	0.0333333333333	0.1333333333333	0.0666666666667	382.7123188972473	
12	278.02070784568787	pulse	0	t		0.16666667	0.0666666666667	0.0	232.0	0.0333333333333	0.1333333333333	0.0666666666667	384.3122878074646	
12	279.6207458972931	pulse	0	t		0.16666667	0.0666666666667	0.0	232.0	0.0333333333333	0.1333333333333	0.0666666666667	385.9123258590698	
12	281.22075605392456	pulse	0	t		0.16666667	0.0666666666667	0.0	232.0	0.0333333333333	0.1333333333333	0.0666666666667	387.5123360157013	
12	281.8517210483551	response	0	b		0.16666667	0.0666666666667	0.0	232.0	0.0333333333333	0.1333333333333	0.0666666666667	388.14330101013184	
12	282.82077407836914	pulse	0	t		0.16666667	0.0666666666667	0.0	232.0	0.0333333333333	0.1333333333333	0.0666666666667	389.1123540401459	
12	284.4208059310913	pulse	0	t		0.16666667	0.0666666666667	0.0	232.0	0.0333333333333	0.1333333333333	0.0666666666667	390.71238589286804	
12	286.0207710266113	pulse	0	t		0.16666667	0.0666666666667	0.0	232.0	0.0333333333333	0.1333333333333	0.0666666666667	392.31235098838806	
12	287.62075996398926	pulse	0	t		0.16666667	0.0666666666667	0.0	232.0	0.0333333333333	0.1333333333333	0.0666666666667	393.912339925766	
12	289.2208399772644	pulse	0	t		0.16666667	0.0666666666667	0.0	232.0	0.0333333333333	0.1333333333333	0.0666666666667	395.51241993904114	
12	290.82086992263794	pulse	0	t		0.16666667	0.0666666666667	0.0	232.0	0.0333333333333	0.1333333333333	0.0666666666667	397.1124498844147	
12	292.4208710193634	pulse	0	t		0.16666667	0.0666666666667	0.0	232.0	0.0333333333333	0.1333333333333	0.0666666666667	398.71245098114014	
12	292.65482091903687	response	0	b		0.16666667	0.0666666666667	0.0	232.0	0.0333333333333	0.1333333333333	0.0666666666667	398.9464008808136	
12	294.0209150314331	pulse	0	t		0.16666667	0.0666666666667	0.0	232.0	0.0333333333333	0.1333333333333	0.0666666666667	400.31249499320984	
13	294.04364800453186	stim	0		0	0.16666667	0.0666666666667	270.0	256.0	0.0333333333333	0.1333333333333	0.0666666666667	400.3352279663086	24.003676891326904
13	295.06686305999756	response	0	b		0.16666667	0.0666666666667	270.0	256.0	0.0333333333333	0.1333333333333	0.0666666666667	401.3584430217743	
13	295.6209120750427	pulse	0	t		0.16666667	0.0666666666667	270.0	256.0	0.0333333333333	0.1333333333333	0.0666666666667	401.91249203681946	
13	297.2199020385742	pulse	0	t		0.16666667	0.0666666666667	270.0	256.0	0.0333333333333	0.1333333333333	0.0666666666667	403.51148200035095	
13	298.81997084617615	pulse	0	t		0.16666667	0.0666666666667	270.0	256.0	0.0333333333333	0.1333333333333	0.0666666666667	405.1115508079529	
13	300.42000699043274	pulse	0	t		0.16666667	0.0666666666667	270.0	256.0	0.0333333333333	0.1333333333333	0.0666666666667	406.7115869522095	
13	302.0199999809265	pulse	0	t		0.16666667	0.0666666666667	270.0	256.0	0.0333333333333	0.1333333333333	0.0666666666667	408.31157994270325	
13	303.62007188796997	pulse	0	t		0.16666667	0.0666666666667	270.0	256.0	0.0333333333333	0.1333333333333	0.0666666666667	409.9116518497467	
13	304.3480279445648	response	0	b		0.16666667	0.0666666666667	270.0	256.0	0.0333333333333	0.1333333333333	0.0666666666667	410.63960790634155	
13	305.2200379371643	pulse	0	t		0.16666667	0.0666666666667	270.0	256.0	0.0333333333333	0.1333333333333	0.0666666666667	411.51161789894104	
13	306.8200750350952	pulse	0	t		0.16666667	0.0666666666667	270.0	256.0	0.0333333333333	0.1333333333333	0.0666666666667	413.11165499687195	
13	307.1730420589447	response	0	b		0.16666667	0.0666666666667	270.0	256.0	0.0333333333333	0.1333333333333	0.0666666666667	413.46462202072144	
13	308.42007398605347	pulse	0	t		0.16666667	0.0666666666667	270.0	256.0	0.0333333333333	0.1333333333333	0.0666666666667	414.7116539478302	
13	309.2426269054413	response	0	b		0.16666667	0.0666666666667	270.0	256.0	0.0333333333333	0.1333333333333	0.0666666666667	415.534206867218	
13	310.02007389068604	pulse	0	t		0.16666667	0.0666666666667	270.0	256.0	0.0333333333333	0.1333333333333	0.0666666666667	416.31165385246277	
13	311.52710604667664	response	0	b		0.16666667	0.0666666666667	270.0	256.0	0.0333333333333	0.1333333333333	0.0666666666667	417.81868600845337	
13	311.61997985839844	pulse	0	t		0.16666667	0.0666666666667	270.0	256.0	0.0333333333333	0.1333333333333	0.0666666666667	417.91155982017517	
13	313.2201478481293	pulse	0	t		0.16666667	0.0666666666667	270.0	256.0	0.0333333333333	0.1333333333333	0.0666666666667	419.511727809906	
13	314.8201699256897	pulse	0	t		0.16666667	0.0666666666667	270.0	256.0	0.0333333333333	0.1333333333333	0.0666666666667	421.11174988746643	
13	315.2861189842224	response	0	b		0.16666667	0.0666666666667	270.0	256.0	0.0333333333333	0.1333333333333	0.0666666666667	421.57769894599915	
13	316.4201719760895	pulse	0	t		0.16666667	0.0666666666667	270.0	256.0	0.0333333333333	0.1333333333333	0.0666666666667	422.7117519378662	
13	318.0202169418335	pulse	0	t		0.16666667	0.0666666666667	270.0	256.0	0.0333333333333	0.1333333333333	0.0666666666667	424.31179690361023	
14	318.04732489585876	stim	0		0								424.3389048576355	24.937062978744507
14	318.20746994018555	response	0	b									424.4990499019623	
14	319.6227550506592	pulse	0	t									425.9143350124359	
14	321.22284388542175	pulse	0	t									427.5144238471985	
14	322.82309007644653	pulse	0	t									429.11467003822327	
14	322.9230740070343	response	0	b									429.21465396881104	
14	324.4234209060669	pulse	0	t									430.7150008678436	
14	326.0236449241638	pulse	0	t									432.31522488594055	
14	327.6237699985504	pulse	0	t									433.91534996032715	
14	328.6156349182129	response	0	b									434.9072148799896	
14	329.2240650653839	pulse	0	t									435.51564502716064	
14	330.8242449760437	pulse	0	t									437.11582493782043	
14	330.95941495895386	response	0	b									437.2509949207306	
14	332.4245538711548	pulse	0	t									438.7161338329315	
14	334.024808883667	pulse	0	t									440.3163888454437	
14	334.6765670776367	response	0	b									440.96814703941345	
14	335.62506890296936	pulse	0	t									441.9166488647461	
14	337.2252550125122	pulse	0	t									443.51683497428894	
14	338.8254978656769	pulse	0	t									445.1170778274536	
14	340.42578291893005	pulse	0	t									446.7173628807068	
14	341.4509708881378	response	0	b									447.74255084991455	
14	342.0260200500488	pulse	0	t									448.31760001182556	
