trial_nr	onset	event_type	phase	response	nr_frames	bar_width	bar_refresh_time	bar_direction	start_time	bar_blank_duration	bar_blank_interval	bg_stim_refresh_time	onset_abs	duration
0	0.15827322006225586	stim	0		0								46.83142423629761	0.3916189670562744
0	0.5356202125549316	response	0	space									47.20877122879028	
1	0.5498921871185303	stim	0		0								47.22304320335388	52.341832876205444
1	52.87800121307373	pulse	0	t									99.55115222930908	
1	52.891725063323975	stim	1		0								99.56487607955933	0.0007679462432861328
1	52.89249300956726	stim	0		0								99.56564402580261	24.007405042648315
1	54.475123167037964	pulse	0	t									101.14827418327332	
1	56.07473301887512	pulse	0	t									102.74788403511047	
1	57.67532205581665	pulse	0	t									104.348473072052	
1	58.15034317970276	response	0	e									104.82349419593811	
1	59.275230169296265	pulse	0	t									105.94838118553162	
1	60.875099182128906	pulse	0	t									107.54825019836426	
1	60.958394050598145	response	0	e									107.6315450668335	
1	62.4750862121582	pulse	0	t									109.14823722839355	
1	63.21676707267761	response	0	e									109.88991808891296	
1	64.0751781463623	pulse	0	t									110.74832916259766	
1	65.67512011528015	pulse	0	t									112.3482711315155	
1	67.2750871181488	pulse	0	t									113.94823813438416	
1	68.19174218177795	response	0	e									114.8648931980133	
1	68.87505316734314	pulse	0	t									115.54820418357849	
1	70.47516918182373	pulse	0	t									117.14832019805908	
1	72.07504916191101	pulse	0	t									118.74820017814636	
1	73.67505216598511	pulse	0	t									120.34820318222046	
1	74.15193819999695	response	0	e									120.8250892162323	
1	75.27498316764832	pulse	0	t									121.94813418388367	
1	76.58343601226807	response	0	e									123.25658702850342	
1	76.87505507469177	pulse	0	t									123.54820609092712	
2	76.89989805221558	stim	0		0	0.16666667	0.0666666666667	270.0	24.0	0.0333333333333	0.1333333333333	0.0666666666667	123.57304906845093	23.999884128570557
2	78.47178602218628	pulse	0	t		0.16666667	0.0666666666667	270.0	24.0	0.0333333333333	0.1333333333333	0.0666666666667	125.14493703842163	
2	80.07276320457458	pulse	0	t		0.16666667	0.0666666666667	270.0	24.0	0.0333333333333	0.1333333333333	0.0666666666667	126.74591422080994	
2	81.67258810997009	pulse	0	t		0.16666667	0.0666666666667	270.0	24.0	0.0333333333333	0.1333333333333	0.0666666666667	128.34573912620544	
2	83.27249503135681	pulse	0	t		0.16666667	0.0666666666667	270.0	24.0	0.0333333333333	0.1333333333333	0.0666666666667	129.94564604759216	
2	84.20648121833801	response	0	e		0.16666667	0.0666666666667	270.0	24.0	0.0333333333333	0.1333333333333	0.0666666666667	130.87963223457336	
2	84.87239217758179	pulse	0	t		0.16666667	0.0666666666667	270.0	24.0	0.0333333333333	0.1333333333333	0.0666666666667	131.54554319381714	
2	86.47233414649963	pulse	0	t		0.16666667	0.0666666666667	270.0	24.0	0.0333333333333	0.1333333333333	0.0666666666667	133.14548516273499	
2	86.57415199279785	response	0	e		0.16666667	0.0666666666667	270.0	24.0	0.0333333333333	0.1333333333333	0.0666666666667	133.2473030090332	
2	88.07223606109619	pulse	0	t		0.16666667	0.0666666666667	270.0	24.0	0.0333333333333	0.1333333333333	0.0666666666667	134.74538707733154	
2	89.6721510887146	pulse	0	t		0.16666667	0.0666666666667	270.0	24.0	0.0333333333333	0.1333333333333	0.0666666666667	136.34530210494995	
2	90.60708403587341	response	0	e		0.16666667	0.0666666666667	270.0	24.0	0.0333333333333	0.1333333333333	0.0666666666667	137.28023505210876	
2	91.27203822135925	pulse	0	t		0.16666667	0.0666666666667	270.0	24.0	0.0333333333333	0.1333333333333	0.0666666666667	137.9451892375946	
2	92.8719232082367	pulse	0	t		0.16666667	0.0666666666667	270.0	24.0	0.0333333333333	0.1333333333333	0.0666666666667	139.54507422447205	
2	94.1938271522522	response	0	e		0.16666667	0.0666666666667	270.0	24.0	0.0333333333333	0.1333333333333	0.0666666666667	140.86697816848755	
2	94.47170305252075	pulse	0	t		0.16666667	0.0666666666667	270.0	24.0	0.0333333333333	0.1333333333333	0.0666666666667	141.1448540687561	
2	96.07269406318665	pulse	0	t		0.16666667	0.0666666666667	270.0	24.0	0.0333333333333	0.1333333333333	0.0666666666667	142.745845079422	
2	97.6726131439209	pulse	0	t		0.16666667	0.0666666666667	270.0	24.0	0.0333333333333	0.1333333333333	0.0666666666667	144.34576416015625	
2	99.27255320549011	pulse	0	t		0.16666667	0.0666666666667	270.0	24.0	0.0333333333333	0.1333333333333	0.0666666666667	145.94570422172546	
2	100.87246417999268	pulse	0	t		0.16666667	0.0666666666667	270.0	24.0	0.0333333333333	0.1333333333333	0.0666666666667	147.54561519622803	
3	100.89978218078613	stim	0		0	0.16666667	0.0666666666667	0.0	48.0	0.0333333333333	0.1333333333333	0.0666666666667	147.57293319702148	23.99990200996399
3	102.47228503227234	pulse	0	t		0.16666667	0.0666666666667	0.0	48.0	0.0333333333333	0.1333333333333	0.0666666666667	149.1454360485077	
3	104.07223415374756	pulse	0	t		0.16666667	0.0666666666667	0.0	48.0	0.0333333333333	0.1333333333333	0.0666666666667	150.7453851699829	
3	104.87219905853271	response	0	e		0.16666667	0.0666666666667	0.0	48.0	0.0333333333333	0.1333333333333	0.0666666666667	151.54535007476807	
3	105.67211508750916	pulse	0	t		0.16666667	0.0666666666667	0.0	48.0	0.0333333333333	0.1333333333333	0.0666666666667	152.3452661037445	
3	107.27205419540405	pulse	0	t		0.16666667	0.0666666666667	0.0	48.0	0.0333333333333	0.1333333333333	0.0666666666667	153.9452052116394	
3	108.87193202972412	pulse	0	t		0.16666667	0.0666666666667	0.0	48.0	0.0333333333333	0.1333333333333	0.0666666666667	155.54508304595947	
3	110.47184109687805	pulse	0	t		0.16666667	0.0666666666667	0.0	48.0	0.0333333333333	0.1333333333333	0.0666666666667	157.1449921131134	
3	111.09155321121216	response	0	e		0.16666667	0.0666666666667	0.0	48.0	0.0333333333333	0.1333333333333	0.0666666666667	157.7647042274475	
3	112.07274603843689	pulse	0	t		0.16666667	0.0666666666667	0.0	48.0	0.0333333333333	0.1333333333333	0.0666666666667	158.74589705467224	
3	113.41160917282104	response	0	e		0.16666667	0.0666666666667	0.0	48.0	0.0333333333333	0.1333333333333	0.0666666666667	160.0847601890564	
3	113.6725640296936	pulse	0	t		0.16666667	0.0666666666667	0.0	48.0	0.0333333333333	0.1333333333333	0.0666666666667	160.34571504592896	
3	115.27256512641907	pulse	0	t		0.16666667	0.0666666666667	0.0	48.0	0.0333333333333	0.1333333333333	0.0666666666667	161.94571614265442	
3	116.87249422073364	pulse	0	t		0.16666667	0.0666666666667	0.0	48.0	0.0333333333333	0.1333333333333	0.0666666666667	163.545645236969	
3	118.47239899635315	pulse	0	t		0.16666667	0.0666666666667	0.0	48.0	0.0333333333333	0.1333333333333	0.0666666666667	165.1455500125885	
3	118.7183051109314	response	0	e		0.16666667	0.0666666666667	0.0	48.0	0.0333333333333	0.1333333333333	0.0666666666667	165.39145612716675	
3	120.07228517532349	pulse	0	t		0.16666667	0.0666666666667	0.0	48.0	0.0333333333333	0.1333333333333	0.0666666666667	166.74543619155884	
3	121.672199010849	pulse	0	t		0.16666667	0.0666666666667	0.0	48.0	0.0333333333333	0.1333333333333	0.0666666666667	168.34535002708435	
3	122.80004119873047	response	0	e		0.16666667	0.0666666666667	0.0	48.0	0.0333333333333	0.1333333333333	0.0666666666667	169.47319221496582	
3	123.27199006080627	pulse	0	t		0.16666667	0.0666666666667	0.0	48.0	0.0333333333333	0.1333333333333	0.0666666666667	169.94514107704163	
3	124.87195014953613	pulse	0	t		0.16666667	0.0666666666667	0.0	48.0	0.0333333333333	0.1333333333333	0.0666666666667	171.54510116577148	
4	124.89968419075012	stim	0		0	-1.0	1.0	-1.0	72.0	0.0333333333333	0.1333333333333	0.0666666666667	171.57283520698547	15.999904870986938
4	126.47484016418457	pulse	0	t		-1.0	1.0	-1.0	72.0	0.0333333333333	0.1333333333333	0.0666666666667	173.14799118041992	
4	128.07478618621826	pulse	0	t		-1.0	1.0	-1.0	72.0	0.0333333333333	0.1333333333333	0.0666666666667	174.7479372024536	
4	129.6747751235962	pulse	0	t		-1.0	1.0	-1.0	72.0	0.0333333333333	0.1333333333333	0.0666666666667	176.34792613983154	
4	131.14153504371643	response	0	e		-1.0	1.0	-1.0	72.0	0.0333333333333	0.1333333333333	0.0666666666667	177.81468605995178	
4	131.27466416358948	pulse	0	t		-1.0	1.0	-1.0	72.0	0.0333333333333	0.1333333333333	0.0666666666667	177.94781517982483	
4	132.87484121322632	pulse	0	t		-1.0	1.0	-1.0	72.0	0.0333333333333	0.1333333333333	0.0666666666667	179.54799222946167	
4	134.47480416297913	pulse	0	t		-1.0	1.0	-1.0	72.0	0.0333333333333	0.1333333333333	0.0666666666667	181.14795517921448	
4	135.89979720115662	response	0	e		-1.0	1.0	-1.0	72.0	0.0333333333333	0.1333333333333	0.0666666666667	182.57294821739197	
4	136.0748360157013	pulse	0	t		-1.0	1.0	-1.0	72.0	0.0333333333333	0.1333333333333	0.0666666666667	182.74798703193665	
4	137.6749460697174	pulse	0	t		-1.0	1.0	-1.0	72.0	0.0333333333333	0.1333333333333	0.0666666666667	184.34809708595276	
4	139.2748281955719	pulse	0	t		-1.0	1.0	-1.0	72.0	0.0333333333333	0.1333333333333	0.0666666666667	185.94797921180725	
4	140.28308510780334	response	0	e		-1.0	1.0	-1.0	72.0	0.0333333333333	0.1333333333333	0.0666666666667	186.9562361240387	
4	140.87482118606567	pulse	0	t		-1.0	1.0	-1.0	72.0	0.0333333333333	0.1333333333333	0.0666666666667	187.54797220230103	
5	140.89958906173706	stim	0		0	0.16666667	0.0666666666667	90.0	88.0	0.0333333333333	0.1333333333333	0.0666666666667	187.5727400779724	23.99997115135193
5	142.4719250202179	pulse	0	t		0.16666667	0.0666666666667	90.0	88.0	0.0333333333333	0.1333333333333	0.0666666666667	189.14507603645325	
5	143.2478530406952	response	0	e		0.16666667	0.0666666666667	90.0	88.0	0.0333333333333	0.1333333333333	0.0666666666667	189.92100405693054	
5	144.0727880001068	pulse	0	t		0.16666667	0.0666666666667	90.0	88.0	0.0333333333333	0.1333333333333	0.0666666666667	190.74593901634216	
5	145.48729705810547	response	0	e		0.16666667	0.0666666666667	90.0	88.0	0.0333333333333	0.1333333333333	0.0666666666667	192.16044807434082	
5	145.67263317108154	pulse	0	t		0.16666667	0.0666666666667	90.0	88.0	0.0333333333333	0.1333333333333	0.0666666666667	192.3457841873169	
5	147.27264618873596	pulse	0	t		0.16666667	0.0666666666667	90.0	88.0	0.0333333333333	0.1333333333333	0.0666666666667	193.9457972049713	
5	148.87252020835876	pulse	0	t		0.16666667	0.0666666666667	90.0	88.0	0.0333333333333	0.1333333333333	0.0666666666667	195.54567122459412	
5	150.00148510932922	response	0	e		0.16666667	0.0666666666667	90.0	88.0	0.0333333333333	0.1333333333333	0.0666666666667	196.67463612556458	
5	150.47235107421875	pulse	0	t		0.16666667	0.0666666666667	90.0	88.0	0.0333333333333	0.1333333333333	0.0666666666667	197.1455020904541	
5	152.07243418693542	pulse	0	t		0.16666667	0.0666666666667	90.0	88.0	0.0333333333333	0.1333333333333	0.0666666666667	198.74558520317078	
5	153.67226314544678	pulse	0	t		0.16666667	0.0666666666667	90.0	88.0	0.0333333333333	0.1333333333333	0.0666666666667	200.34541416168213	
5	155.27216720581055	pulse	0	t		0.16666667	0.0666666666667	90.0	88.0	0.0333333333333	0.1333333333333	0.0666666666667	201.9453182220459	
5	156.87200212478638	pulse	0	t		0.16666667	0.0666666666667	90.0	88.0	0.0333333333333	0.1333333333333	0.0666666666667	203.54515314102173	
5	158.47196507453918	pulse	0	t		0.16666667	0.0666666666667	90.0	88.0	0.0333333333333	0.1333333333333	0.0666666666667	205.14511609077454	
5	160.07284903526306	pulse	0	t		0.16666667	0.0666666666667	90.0	88.0	0.0333333333333	0.1333333333333	0.0666666666667	206.7460000514984	
5	161.30573105812073	response	0	e		0.16666667	0.0666666666667	90.0	88.0	0.0333333333333	0.1333333333333	0.0666666666667	207.97888207435608	
5	161.67263007164001	pulse	0	t		0.16666667	0.0666666666667	90.0	88.0	0.0333333333333	0.1333333333333	0.0666666666667	208.34578108787537	
5	163.27262902259827	pulse	0	t		0.16666667	0.0666666666667	90.0	88.0	0.0333333333333	0.1333333333333	0.0666666666667	209.94578003883362	
5	163.75857210159302	response	0	e		0.16666667	0.0666666666667	90.0	88.0	0.0333333333333	0.1333333333333	0.0666666666667	210.43172311782837	
5	164.87254309654236	pulse	0	t		0.16666667	0.0666666666667	90.0	88.0	0.0333333333333	0.1333333333333	0.0666666666667	211.5456941127777	
6	164.899560213089	stim	0		0	0.16666667	0.0666666666667	180.0	112.0	0.0333333333333	0.1333333333333	0.0666666666667	211.57271122932434	23.999736785888672
6	166.47243213653564	pulse	0	t		0.16666667	0.0666666666667	180.0	112.0	0.0333333333333	0.1333333333333	0.0666666666667	213.145583152771	
6	167.654372215271	response	0	e		0.16666667	0.0666666666667	180.0	112.0	0.0333333333333	0.1333333333333	0.0666666666667	214.32752323150635	
6	168.07231307029724	pulse	0	t		0.16666667	0.0666666666667	180.0	112.0	0.0333333333333	0.1333333333333	0.0666666666667	214.7454640865326	
6	169.67223119735718	pulse	0	t		0.16666667	0.0666666666667	180.0	112.0	0.0333333333333	0.1333333333333	0.0666666666667	216.34538221359253	
6	169.75912308692932	response	0	e		0.16666667	0.0666666666667	180.0	112.0	0.0333333333333	0.1333333333333	0.0666666666667	216.43227410316467	
6	171.27217602729797	pulse	0	t		0.16666667	0.0666666666667	180.0	112.0	0.0333333333333	0.1333333333333	0.0666666666667	217.94532704353333	
6	172.87210822105408	pulse	0	t		0.16666667	0.0666666666667	180.0	112.0	0.0333333333333	0.1333333333333	0.0666666666667	219.54525923728943	
6	174.4719409942627	pulse	0	t		0.16666667	0.0666666666667	180.0	112.0	0.0333333333333	0.1333333333333	0.0666666666667	221.14509201049805	
6	176.07286405563354	pulse	0	t		0.16666667	0.0666666666667	180.0	112.0	0.0333333333333	0.1333333333333	0.0666666666667	222.7460150718689	
6	177.67281913757324	pulse	0	t		0.16666667	0.0666666666667	180.0	112.0	0.0333333333333	0.1333333333333	0.0666666666667	224.3459701538086	
6	179.13163900375366	response	0	e		0.16666667	0.0666666666667	180.0	112.0	0.0333333333333	0.1333333333333	0.0666666666667	225.804790019989	
6	179.27251815795898	pulse	0	t		0.16666667	0.0666666666667	180.0	112.0	0.0333333333333	0.1333333333333	0.0666666666667	225.94566917419434	
6	180.62853717803955	response	0	e		0.16666667	0.0666666666667	180.0	112.0	0.0333333333333	0.1333333333333	0.0666666666667	227.3016881942749	
6	180.8724880218506	pulse	0	t		0.16666667	0.0666666666667	180.0	112.0	0.0333333333333	0.1333333333333	0.0666666666667	227.54563903808594	
6	182.47253513336182	pulse	0	t		0.16666667	0.0666666666667	180.0	112.0	0.0333333333333	0.1333333333333	0.0666666666667	229.14568614959717	
6	184.0724151134491	pulse	0	t		0.16666667	0.0666666666667	180.0	112.0	0.0333333333333	0.1333333333333	0.0666666666667	230.74556612968445	
6	185.67228817939758	pulse	0	t		0.16666667	0.0666666666667	180.0	112.0	0.0333333333333	0.1333333333333	0.0666666666667	232.34543919563293	
6	185.75781512260437	response	0	e		0.16666667	0.0666666666667	180.0	112.0	0.0333333333333	0.1333333333333	0.0666666666667	232.43096613883972	
6	187.27218198776245	pulse	0	t		0.16666667	0.0666666666667	180.0	112.0	0.0333333333333	0.1333333333333	0.0666666666667	233.9453330039978	
6	188.87213516235352	pulse	0	t		0.16666667	0.0666666666667	180.0	112.0	0.0333333333333	0.1333333333333	0.0666666666667	235.54528617858887	
7	188.89929699897766	stim	0		0	-1.0	1.0	-1.0	136.0	0.0333333333333	0.1333333333333	0.0666666666667	235.572448015213	16.000010013580322
7	189.60789918899536	response	0	e		-1.0	1.0	-1.0	136.0	0.0333333333333	0.1333333333333	0.0666666666667	236.2810502052307	
7	190.47448205947876	pulse	0	t		-1.0	1.0	-1.0	136.0	0.0333333333333	0.1333333333333	0.0666666666667	237.1476330757141	
7	192.07447409629822	pulse	0	t		-1.0	1.0	-1.0	136.0	0.0333333333333	0.1333333333333	0.0666666666667	238.74762511253357	
7	193.6744520664215	pulse	0	t		-1.0	1.0	-1.0	136.0	0.0333333333333	0.1333333333333	0.0666666666667	240.34760308265686	
7	195.23285007476807	response	0	e		-1.0	1.0	-1.0	136.0	0.0333333333333	0.1333333333333	0.0666666666667	241.90600109100342	
7	195.27447819709778	pulse	0	t		-1.0	1.0	-1.0	136.0	0.0333333333333	0.1333333333333	0.0666666666667	241.94762921333313	
7	196.8744502067566	pulse	0	t		-1.0	1.0	-1.0	136.0	0.0333333333333	0.1333333333333	0.0666666666667	243.54760122299194	
7	198.47461009025574	pulse	0	t		-1.0	1.0	-1.0	136.0	0.0333333333333	0.1333333333333	0.0666666666667	245.1477611064911	
7	199.40788507461548	response	0	e		-1.0	1.0	-1.0	136.0	0.0333333333333	0.1333333333333	0.0666666666667	246.08103609085083	
7	200.07450699806213	pulse	0	t		-1.0	1.0	-1.0	136.0	0.0333333333333	0.1333333333333	0.0666666666667	246.74765801429749	
7	201.67453718185425	pulse	0	t		-1.0	1.0	-1.0	136.0	0.0333333333333	0.1333333333333	0.0666666666667	248.3476881980896	
7	201.67462921142578	response	0	e		-1.0	1.0	-1.0	136.0	0.0333333333333	0.1333333333333	0.0666666666667	248.34778022766113	
7	203.2744481563568	pulse	0	t		-1.0	1.0	-1.0	136.0	0.0333333333333	0.1333333333333	0.0666666666667	249.94759917259216	
7	204.8744421005249	pulse	0	t		-1.0	1.0	-1.0	136.0	0.0333333333333	0.1333333333333	0.0666666666667	251.54759311676025	
8	204.89930701255798	stim	0		0	-1.0	1.0	-1.0	152.0	0.0333333333333	0.1333333333333	0.0666666666667	251.57245802879333	15.999934196472168
8	206.301274061203	response	0	e		-1.0	1.0	-1.0	152.0	0.0333333333333	0.1333333333333	0.0666666666667	252.97442507743835	
8	206.47442817687988	pulse	0	t		-1.0	1.0	-1.0	152.0	0.0333333333333	0.1333333333333	0.0666666666667	253.14757919311523	
8	208.0744390487671	pulse	0	t		-1.0	1.0	-1.0	152.0	0.0333333333333	0.1333333333333	0.0666666666667	254.74759006500244	
8	209.67445302009583	pulse	0	t		-1.0	1.0	-1.0	152.0	0.0333333333333	0.1333333333333	0.0666666666667	256.3476040363312	
8	211.27448105812073	pulse	0	t		-1.0	1.0	-1.0	152.0	0.0333333333333	0.1333333333333	0.0666666666667	257.9476320743561	
8	212.87447309494019	pulse	0	t		-1.0	1.0	-1.0	152.0	0.0333333333333	0.1333333333333	0.0666666666667	259.54762411117554	
8	214.4743881225586	pulse	0	t		-1.0	1.0	-1.0	152.0	0.0333333333333	0.1333333333333	0.0666666666667	261.14753913879395	
8	214.99111104011536	response	0	e		-1.0	1.0	-1.0	152.0	0.0333333333333	0.1333333333333	0.0666666666667	261.6642620563507	
8	216.07441115379333	pulse	0	t		-1.0	1.0	-1.0	152.0	0.0333333333333	0.1333333333333	0.0666666666667	262.7475621700287	
8	217.67443013191223	pulse	0	t		-1.0	1.0	-1.0	152.0	0.0333333333333	0.1333333333333	0.0666666666667	264.3475811481476	
8	218.70770812034607	response	0	e		-1.0	1.0	-1.0	152.0	0.0333333333333	0.1333333333333	0.0666666666667	265.3808591365814	
8	219.2743821144104	pulse	0	t		-1.0	1.0	-1.0	152.0	0.0333333333333	0.1333333333333	0.0666666666667	265.94753313064575	
8	220.87434220314026	pulse	0	t		-1.0	1.0	-1.0	152.0	0.0333333333333	0.1333333333333	0.0666666666667	267.5474932193756	
9	220.89924120903015	stim	0		0	0.16666667	0.0666666666667	180.0	168.0	0.0333333333333	0.1333333333333	0.0666666666667	267.5723922252655	23.99151587486267
9	222.47198104858398	pulse	0	t		0.16666667	0.0666666666667	180.0	168.0	0.0333333333333	0.1333333333333	0.0666666666667	269.14513206481934	
9	224.07292699813843	pulse	0	t		0.16666667	0.0666666666667	180.0	168.0	0.0333333333333	0.1333333333333	0.0666666666667	270.7460780143738	
9	224.46292519569397	response	0	e		0.16666667	0.0666666666667	180.0	168.0	0.0333333333333	0.1333333333333	0.0666666666667	271.1360762119293	
9	225.67278599739075	pulse	0	t		0.16666667	0.0666666666667	180.0	168.0	0.0333333333333	0.1333333333333	0.0666666666667	272.3459370136261	
9	227.27272820472717	pulse	0	t		0.16666667	0.0666666666667	180.0	168.0	0.0333333333333	0.1333333333333	0.0666666666667	273.9458792209625	
9	228.1197190284729	response	0	e		0.16666667	0.0666666666667	180.0	168.0	0.0333333333333	0.1333333333333	0.0666666666667	274.79287004470825	
9	228.87264204025269	pulse	0	t		0.16666667	0.0666666666667	180.0	168.0	0.0333333333333	0.1333333333333	0.0666666666667	275.54579305648804	
9	230.4726061820984	pulse	0	t		0.16666667	0.0666666666667	180.0	168.0	0.0333333333333	0.1333333333333	0.0666666666667	277.14575719833374	
9	232.07250308990479	pulse	0	t		0.16666667	0.0666666666667	180.0	168.0	0.0333333333333	0.1333333333333	0.0666666666667	278.74565410614014	
9	233.67230319976807	pulse	0	t		0.16666667	0.0666666666667	180.0	168.0	0.0333333333333	0.1333333333333	0.0666666666667	280.3454542160034	
9	235.27226901054382	pulse	0	t		0.16666667	0.0666666666667	180.0	168.0	0.0333333333333	0.1333333333333	0.0666666666667	281.9454200267792	
9	236.87210416793823	pulse	0	t		0.16666667	0.0666666666667	180.0	168.0	0.0333333333333	0.1333333333333	0.0666666666667	283.5452551841736	
9	237.31799912452698	response	0	e		0.16666667	0.0666666666667	180.0	168.0	0.0333333333333	0.1333333333333	0.0666666666667	283.99115014076233	
9	238.47209215164185	pulse	0	t		0.16666667	0.0666666666667	180.0	168.0	0.0333333333333	0.1333333333333	0.0666666666667	285.1452431678772	
9	240.07301020622253	pulse	0	t		0.16666667	0.0666666666667	180.0	168.0	0.0333333333333	0.1333333333333	0.0666666666667	286.7461612224579	
9	241.6728711128235	pulse	0	t		0.16666667	0.0666666666667	180.0	168.0	0.0333333333333	0.1333333333333	0.0666666666667	288.34602212905884	
9	242.1157581806183	response	0	e		0.16666667	0.0666666666667	180.0	168.0	0.0333333333333	0.1333333333333	0.0666666666667	288.78890919685364	
9	243.272723197937	pulse	0	t		0.16666667	0.0666666666667	180.0	168.0	0.0333333333333	0.1333333333333	0.0666666666667	289.94587421417236	
9	244.32167410850525	response	0	e		0.16666667	0.0666666666667	180.0	168.0	0.0333333333333	0.1333333333333	0.0666666666667	290.9948251247406	
9	244.87259006500244	pulse	0	t		0.16666667	0.0666666666667	180.0	168.0	0.0333333333333	0.1333333333333	0.0666666666667	291.5457410812378	
10	244.89075708389282	stim	0		0	0.16666667	0.0666666666667	90.0	192.0	0.0333333333333	0.1333333333333	0.0666666666667	291.5639081001282	24.00834894180298
10	246.4726300239563	pulse	0	t		0.16666667	0.0666666666667	90.0	192.0	0.0333333333333	0.1333333333333	0.0666666666667	293.14578104019165	
10	248.07252717018127	pulse	0	t		0.16666667	0.0666666666667	90.0	192.0	0.0333333333333	0.1333333333333	0.0666666666667	294.7456781864166	
10	248.19140601158142	response	0	e		0.16666667	0.0666666666667	90.0	192.0	0.0333333333333	0.1333333333333	0.0666666666667	294.8645570278168	
10	249.67235898971558	pulse	0	t		0.16666667	0.0666666666667	90.0	192.0	0.0333333333333	0.1333333333333	0.0666666666667	296.3455100059509	
10	250.3973150253296	response	0	e		0.16666667	0.0666666666667	90.0	192.0	0.0333333333333	0.1333333333333	0.0666666666667	297.07046604156494	
10	251.27232718467712	pulse	0	t		0.16666667	0.0666666666667	90.0	192.0	0.0333333333333	0.1333333333333	0.0666666666667	297.9454782009125	
10	252.87220215797424	pulse	0	t		0.16666667	0.0666666666667	90.0	192.0	0.0333333333333	0.1333333333333	0.0666666666667	299.5453531742096	
10	254.47215604782104	pulse	0	t		0.16666667	0.0666666666667	90.0	192.0	0.0333333333333	0.1333333333333	0.0666666666667	301.1453070640564	
10	255.2501471042633	response	0	e		0.16666667	0.0666666666667	90.0	192.0	0.0333333333333	0.1333333333333	0.0666666666667	301.92329812049866	
10	256.07307600975037	pulse	0	t		0.16666667	0.0666666666667	90.0	192.0	0.0333333333333	0.1333333333333	0.0666666666667	302.7462270259857	
10	257.6729621887207	pulse	0	t		0.16666667	0.0666666666667	90.0	192.0	0.0333333333333	0.1333333333333	0.0666666666667	304.34611320495605	
10	259.27277302742004	pulse	0	t		0.16666667	0.0666666666667	90.0	192.0	0.0333333333333	0.1333333333333	0.0666666666667	305.9459240436554	
10	260.8727111816406	pulse	0	t		0.16666667	0.0666666666667	90.0	192.0	0.0333333333333	0.1333333333333	0.0666666666667	307.545862197876	
10	262.4725971221924	pulse	0	t		0.16666667	0.0666666666667	90.0	192.0	0.0333333333333	0.1333333333333	0.0666666666667	309.14574813842773	
10	264.07254815101624	pulse	0	t		0.16666667	0.0666666666667	90.0	192.0	0.0333333333333	0.1333333333333	0.0666666666667	310.7456991672516	
10	265.67246413230896	pulse	0	t		0.16666667	0.0666666666667	90.0	192.0	0.0333333333333	0.1333333333333	0.0666666666667	312.3456151485443	
10	267.27233505249023	pulse	0	t		0.16666667	0.0666666666667	90.0	192.0	0.0333333333333	0.1333333333333	0.0666666666667	313.9454860687256	
10	268.8552370071411	response	0	e		0.16666667	0.0666666666667	90.0	192.0	0.0333333333333	0.1333333333333	0.0666666666667	315.52838802337646	
10	268.87206411361694	pulse	0	t		0.16666667	0.0666666666667	90.0	192.0	0.0333333333333	0.1333333333333	0.0666666666667	315.5452151298523	
11	268.8991060256958	stim	0		0	-1.0	1.0	-1.0	216.0	0.0333333333333	0.1333333333333	0.0666666666667	315.57225704193115	15.999902963638306
11	270.47406220436096	pulse	0	t		-1.0	1.0	-1.0	216.0	0.0333333333333	0.1333333333333	0.0666666666667	317.1472132205963	
11	272.0741081237793	pulse	0	t		-1.0	1.0	-1.0	216.0	0.0333333333333	0.1333333333333	0.0666666666667	318.74725914001465	
11	273.674045085907	pulse	0	t		-1.0	1.0	-1.0	216.0	0.0333333333333	0.1333333333333	0.0666666666667	320.34719610214233	
11	274.34075021743774	response	0	e		-1.0	1.0	-1.0	216.0	0.0333333333333	0.1333333333333	0.0666666666667	321.0139012336731	
11	275.274188041687	pulse	0	t		-1.0	1.0	-1.0	216.0	0.0333333333333	0.1333333333333	0.0666666666667	321.94733905792236	
11	276.8742480278015	pulse	0	t		-1.0	1.0	-1.0	216.0	0.0333333333333	0.1333333333333	0.0666666666667	323.54739904403687	
11	278.47406005859375	pulse	0	t		-1.0	1.0	-1.0	216.0	0.0333333333333	0.1333333333333	0.0666666666667	325.1472110748291	
11	280.073646068573	pulse	0	t		-1.0	1.0	-1.0	216.0	0.0333333333333	0.1333333333333	0.0666666666667	326.74679708480835	
11	281.6743440628052	pulse	0	t		-1.0	1.0	-1.0	216.0	0.0333333333333	0.1333333333333	0.0666666666667	328.3474950790405	
11	283.27406120300293	pulse	0	t		-1.0	1.0	-1.0	216.0	0.0333333333333	0.1333333333333	0.0666666666667	329.9472122192383	
11	284.8740680217743	pulse	0	t		-1.0	1.0	-1.0	216.0	0.0333333333333	0.1333333333333	0.0666666666667	331.54721903800964	
12	284.8990089893341	stim	0		0	0.16666667	0.0666666666667	0.0	232.0	0.0333333333333	0.1333333333333	0.0666666666667	331.57216000556946	23.99141502380371
12	286.4721941947937	pulse	0	t		0.16666667	0.0666666666667	0.0	232.0	0.0333333333333	0.1333333333333	0.0666666666667	333.14534521102905	
12	288.07309317588806	pulse	0	t		0.16666667	0.0666666666667	0.0	232.0	0.0333333333333	0.1333333333333	0.0666666666667	334.7462441921234	
12	289.53986716270447	response	0	e		0.16666667	0.0666666666667	0.0	232.0	0.0333333333333	0.1333333333333	0.0666666666667	336.2130181789398	
12	289.6727650165558	pulse	0	t		0.16666667	0.0666666666667	0.0	232.0	0.0333333333333	0.1333333333333	0.0666666666667	336.34591603279114	
12	291.2728362083435	pulse	0	t		0.16666667	0.0666666666667	0.0	232.0	0.0333333333333	0.1333333333333	0.0666666666667	337.94598722457886	
12	292.8727581501007	pulse	0	t		0.16666667	0.0666666666667	0.0	232.0	0.0333333333333	0.1333333333333	0.0666666666667	339.54590916633606	
12	293.52171301841736	response	0	e		0.16666667	0.0666666666667	0.0	232.0	0.0333333333333	0.1333333333333	0.0666666666667	340.1948640346527	
12	294.47267413139343	pulse	0	t		0.16666667	0.0666666666667	0.0	232.0	0.0333333333333	0.1333333333333	0.0666666666667	341.1458251476288	
12	296.07261300086975	pulse	0	t		0.16666667	0.0666666666667	0.0	232.0	0.0333333333333	0.1333333333333	0.0666666666667	342.7457640171051	
12	297.6724991798401	pulse	0	t		0.16666667	0.0666666666667	0.0	232.0	0.0333333333333	0.1333333333333	0.0666666666667	344.34565019607544	
12	298.07537603378296	response	0	e		0.16666667	0.0666666666667	0.0	232.0	0.0333333333333	0.1333333333333	0.0666666666667	344.7485270500183	
12	299.2723340988159	pulse	0	t		0.16666667	0.0666666666667	0.0	232.0	0.0333333333333	0.1333333333333	0.0666666666667	345.94548511505127	
12	300.35231018066406	response	0	e		0.16666667	0.0666666666667	0.0	232.0	0.0333333333333	0.1333333333333	0.0666666666667	347.0254611968994	
12	300.8722360134125	pulse	0	t		0.16666667	0.0666666666667	0.0	232.0	0.0333333333333	0.1333333333333	0.0666666666667	347.5453870296478	
12	302.4722111225128	pulse	0	t		0.16666667	0.0666666666667	0.0	232.0	0.0333333333333	0.1333333333333	0.0666666666667	349.14536213874817	
12	304.0730969905853	pulse	0	t		0.16666667	0.0666666666667	0.0	232.0	0.0333333333333	0.1333333333333	0.0666666666667	350.7462480068207	
12	304.4959862232208	response	0	e		0.16666667	0.0666666666667	0.0	232.0	0.0333333333333	0.1333333333333	0.0666666666667	351.1691372394562	
12	305.6729431152344	pulse	0	t		0.16666667	0.0666666666667	0.0	232.0	0.0333333333333	0.1333333333333	0.0666666666667	352.3460941314697	
12	307.27281403541565	pulse	0	t		0.16666667	0.0666666666667	0.0	232.0	0.0333333333333	0.1333333333333	0.0666666666667	353.945965051651	
12	308.8727331161499	pulse	0	t		0.16666667	0.0666666666667	0.0	232.0	0.0333333333333	0.1333333333333	0.0666666666667	355.54588413238525	
13	308.8904240131378	stim	0		0	0.16666667	0.0666666666667	270.0	256.0	0.0333333333333	0.1333333333333	0.0666666666667	355.56357502937317	24.008275032043457
13	310.4726531505585	pulse	0	t		0.16666667	0.0666666666667	270.0	256.0	0.0333333333333	0.1333333333333	0.0666666666667	357.1458041667938	
13	310.8486649990082	response	0	e		0.16666667	0.0666666666667	270.0	256.0	0.0333333333333	0.1333333333333	0.0666666666667	357.52181601524353	
13	312.0725440979004	pulse	0	t		0.16666667	0.0666666666667	270.0	256.0	0.0333333333333	0.1333333333333	0.0666666666667	358.74569511413574	
13	313.67250204086304	pulse	0	t		0.16666667	0.0666666666667	270.0	256.0	0.0333333333333	0.1333333333333	0.0666666666667	360.3456530570984	
13	315.27241110801697	pulse	0	t		0.16666667	0.0666666666667	270.0	256.0	0.0333333333333	0.1333333333333	0.0666666666667	361.9455621242523	
13	316.87230014801025	pulse	0	t		0.16666667	0.0666666666667	270.0	256.0	0.0333333333333	0.1333333333333	0.0666666666667	363.5454511642456	
13	317.9372661113739	response	0	e		0.16666667	0.0666666666667	270.0	256.0	0.0333333333333	0.1333333333333	0.0666666666667	364.61041712760925	
13	318.4721620082855	pulse	0	t		0.16666667	0.0666666666667	270.0	256.0	0.0333333333333	0.1333333333333	0.0666666666667	365.1453130245209	
13	320.0730550289154	pulse	0	t		0.16666667	0.0666666666667	270.0	256.0	0.0333333333333	0.1333333333333	0.0666666666667	366.74620604515076	
13	321.6730182170868	pulse	0	t		0.16666667	0.0666666666667	270.0	256.0	0.0333333333333	0.1333333333333	0.0666666666667	368.34616923332214	
13	323.272940158844	pulse	0	t		0.16666667	0.0666666666667	270.0	256.0	0.0333333333333	0.1333333333333	0.0666666666667	369.94609117507935	
13	324.87281107902527	pulse	0	t		0.16666667	0.0666666666667	270.0	256.0	0.0333333333333	0.1333333333333	0.0666666666667	371.5459620952606	
13	326.4726641178131	pulse	0	t		0.16666667	0.0666666666667	270.0	256.0	0.0333333333333	0.1333333333333	0.0666666666667	373.14581513404846	
13	328.07261514663696	pulse	0	t		0.16666667	0.0666666666667	270.0	256.0	0.0333333333333	0.1333333333333	0.0666666666667	374.7457661628723	
13	329.67247915267944	pulse	0	t		0.16666667	0.0666666666667	270.0	256.0	0.0333333333333	0.1333333333333	0.0666666666667	376.3456301689148	
13	331.27241802215576	pulse	0	t		0.16666667	0.0666666666667	270.0	256.0	0.0333333333333	0.1333333333333	0.0666666666667	377.9455690383911	
13	332.8723211288452	pulse	0	t		0.16666667	0.0666666666667	270.0	256.0	0.0333333333333	0.1333333333333	0.0666666666667	379.54547214508057	
14	332.8986990451813	stim	0		0								379.5718500614166	24.33323311805725
14	333.8654429912567	response	0	e									380.53859400749207	
14	334.4739520549774	pulse	0	t									381.14710307121277	
14	336.0733292102814	pulse	0	t									382.7464802265167	
14	337.67408299446106	pulse	0	t									384.3472340106964	
14	339.2738211154938	pulse	0	t									385.9469721317291	
14	340.8737680912018	pulse	0	t									387.54691910743713	
14	342.4736931324005	pulse	0	t									389.14684414863586	
14	344.0737051963806	pulse	0	t									390.74685621261597	
14	344.200453042984	response	0	e									390.87360405921936	
14	345.673691034317	pulse	0	t									392.34684205055237	
14	347.27377104759216	pulse	0	t									393.9469220638275	
14	347.84870505332947	response	0	e									394.5218560695648	
14	348.87382411956787	pulse	0	t									395.5469751358032	
14	350.4737811088562	pulse	0	t									397.14693212509155	
14	352.0736219882965	pulse	0	t									398.74677300453186	
14	353.67368602752686	pulse	0	t									400.3468370437622	
14	355.2736442089081	pulse	0	t									401.94679522514343	
14	356.8737051486969	pulse	0	t									403.54685616493225	
