trial_nr	onset	event_type	phase	response	nr_frames	bar_width	bar_refresh_time	bar_direction	start_time	bar_blank_duration	bar_blank_interval	bg_stim_refresh_time	onset_abs	duration
0	0.15827703475952148	stim	0		0								8.334582090377808	0.49999213218688965
0	0.650219202041626	response	0	space									8.826524257659912	
1	0.6582691669464111	stim	0		0								8.834574222564697	28.14149785041809
1	28.780405044555664	pulse	0	t									36.95671010017395	
1	28.799767017364502	stim	1		0								36.97607207298279	0.0008749961853027344
1	28.800642013549805	stim	0		0								36.97694706916809	24.007397174835205
1	30.37483811378479	pulse	0	t									38.551143169403076	
1	31.974791049957275	pulse	0	t									40.15109610557556	
1	33.57488799095154	pulse	0	t									41.751193046569824	
1	35.174872159957886	pulse	0	t									43.35117721557617	
1	35.741499185562134	response	0	e									43.91780424118042	
1	36.774840116500854	pulse	0	t									44.95114517211914	
1	38.37479019165039	pulse	0	t									46.55109524726868	
1	39.69976997375488	response	0	e									47.87607502937317	
1	39.97649598121643	pulse	0	t									48.15280103683472	
1	41.57484412193298	pulse	0	t									49.75114917755127	
1	43.174774169921875	pulse	0	t									51.35107922554016	
1	44.77484202384949	pulse	0	t									52.95114707946777	
1	45.48309397697449	response	0	e									53.65939903259277	
1	46.37473011016846	pulse	0	t									54.55103516578674	
1	47.97478103637695	pulse	0	t									56.15108609199524	
1	49.57480216026306	response	0	e									57.75110721588135	
1	49.577208042144775	pulse	0	t									57.75351309776306	
1	51.17478013038635	pulse	0	t									59.35108518600464	
1	52.77470397949219	pulse	0	t									60.951009035110474	
2	52.80803918838501	stim	0		0	0.16666667	0.0666666666667	270.0	24.0	0.0333333333333	0.1333333333333	0.0666666666667	60.984344244003296	23.99983501434326
2	53.8273401260376	response	0	e		0.16666667	0.0666666666667	270.0	24.0	0.0333333333333	0.1333333333333	0.0666666666667	62.003645181655884	
2	54.37419605255127	pulse	0	t		0.16666667	0.0666666666667	270.0	24.0	0.0333333333333	0.1333333333333	0.0666666666667	62.550501108169556	
2	55.975147008895874	pulse	0	t		0.16666667	0.0666666666667	270.0	24.0	0.0333333333333	0.1333333333333	0.0666666666667	64.15145206451416	
2	57.514031171798706	response	0	e		0.16666667	0.0666666666667	270.0	24.0	0.0333333333333	0.1333333333333	0.0666666666667	65.69033622741699	
2	57.57490420341492	pulse	0	t		0.16666667	0.0666666666667	270.0	24.0	0.0333333333333	0.1333333333333	0.0666666666667	65.7512092590332	
2	59.17498302459717	pulse	0	t		0.16666667	0.0666666666667	270.0	24.0	0.0333333333333	0.1333333333333	0.0666666666667	67.35128808021545	
2	59.80487418174744	response	0	e		0.16666667	0.0666666666667	270.0	24.0	0.0333333333333	0.1333333333333	0.0666666666667	67.98117923736572	
2	60.774819135665894	pulse	0	t		0.16666667	0.0666666666667	270.0	24.0	0.0333333333333	0.1333333333333	0.0666666666667	68.95112419128418	
2	62.374760150909424	pulse	0	t		0.16666667	0.0666666666667	270.0	24.0	0.0333333333333	0.1333333333333	0.0666666666667	70.55106520652771	
2	62.806671142578125	response	0	e		0.16666667	0.0666666666667	270.0	24.0	0.0333333333333	0.1333333333333	0.0666666666667	70.98297619819641	
2	63.97461819648743	pulse	0	t		0.16666667	0.0666666666667	270.0	24.0	0.0333333333333	0.1333333333333	0.0666666666667	72.15092325210571	
2	65.57450699806213	pulse	0	t		0.16666667	0.0666666666667	270.0	24.0	0.0333333333333	0.1333333333333	0.0666666666667	73.75081205368042	
2	66.83151698112488	response	0	e		0.16666667	0.0666666666667	270.0	24.0	0.0333333333333	0.1333333333333	0.0666666666667	75.00782203674316	
2	67.1743700504303	pulse	0	t		0.16666667	0.0666666666667	270.0	24.0	0.0333333333333	0.1333333333333	0.0666666666667	75.35067510604858	
2	68.77433800697327	pulse	0	t		0.16666667	0.0666666666667	270.0	24.0	0.0333333333333	0.1333333333333	0.0666666666667	76.95064306259155	
2	69.37926411628723	response	0	e		0.16666667	0.0666666666667	270.0	24.0	0.0333333333333	0.1333333333333	0.0666666666667	77.55556917190552	
2	70.37427020072937	pulse	0	t		0.16666667	0.0666666666667	270.0	24.0	0.0333333333333	0.1333333333333	0.0666666666667	78.55057525634766	
2	71.97516012191772	pulse	0	t		0.16666667	0.0666666666667	270.0	24.0	0.0333333333333	0.1333333333333	0.0666666666667	80.15146517753601	
2	72.8990650177002	response	0	e		0.16666667	0.0666666666667	270.0	24.0	0.0333333333333	0.1333333333333	0.0666666666667	81.07537007331848	
2	73.57503199577332	pulse	0	t		0.16666667	0.0666666666667	270.0	24.0	0.0333333333333	0.1333333333333	0.0666666666667	81.7513370513916	
2	75.17490696907043	pulse	0	t		0.16666667	0.0666666666667	270.0	24.0	0.0333333333333	0.1333333333333	0.0666666666667	83.35121202468872	
2	76.7209210395813	response	0	e		0.16666667	0.0666666666667	270.0	24.0	0.0333333333333	0.1333333333333	0.0666666666667	84.89722609519958	
2	76.77465605735779	pulse	0	t		0.16666667	0.0666666666667	270.0	24.0	0.0333333333333	0.1333333333333	0.0666666666667	84.95096111297607	
3	76.80787420272827	stim	0		0	0.16666667	0.0666666666667	0.0	48.0	0.0333333333333	0.1333333333333	0.0666666666667	84.98417925834656	23.999822854995728
3	78.37477898597717	pulse	0	t		0.16666667	0.0666666666667	0.0	48.0	0.0333333333333	0.1333333333333	0.0666666666667	86.55108404159546	
3	78.89168620109558	response	0	e		0.16666667	0.0666666666667	0.0	48.0	0.0333333333333	0.1333333333333	0.0666666666667	87.06799125671387	
3	79.97465705871582	pulse	0	t		0.16666667	0.0666666666667	0.0	48.0	0.0333333333333	0.1333333333333	0.0666666666667	88.1509621143341	
3	81.57460117340088	pulse	0	t		0.16666667	0.0666666666667	0.0	48.0	0.0333333333333	0.1333333333333	0.0666666666667	89.75090622901917	
3	82.7936761379242	response	0	e		0.16666667	0.0666666666667	0.0	48.0	0.0333333333333	0.1333333333333	0.0666666666667	90.96998119354248	
3	83.17443799972534	pulse	0	t		0.16666667	0.0666666666667	0.0	48.0	0.0333333333333	0.1333333333333	0.0666666666667	91.35074305534363	
3	84.77438712120056	pulse	0	t		0.16666667	0.0666666666667	0.0	48.0	0.0333333333333	0.1333333333333	0.0666666666667	92.95069217681885	
3	85.97030901908875	response	0	e		0.16666667	0.0666666666667	0.0	48.0	0.0333333333333	0.1333333333333	0.0666666666667	94.14661407470703	
3	86.37422108650208	pulse	0	t		0.16666667	0.0666666666667	0.0	48.0	0.0333333333333	0.1333333333333	0.0666666666667	94.55052614212036	
3	87.97526502609253	pulse	0	t		0.16666667	0.0666666666667	0.0	48.0	0.0333333333333	0.1333333333333	0.0666666666667	96.15157008171082	
3	88.84516310691833	response	0	e		0.16666667	0.0666666666667	0.0	48.0	0.0333333333333	0.1333333333333	0.0666666666667	97.02146816253662	
3	89.57510018348694	pulse	0	t		0.16666667	0.0666666666667	0.0	48.0	0.0333333333333	0.1333333333333	0.0666666666667	97.75140523910522	
3	91.17500400543213	pulse	0	t		0.16666667	0.0666666666667	0.0	48.0	0.0333333333333	0.1333333333333	0.0666666666667	99.35130906105042	
3	92.7749240398407	pulse	0	t		0.16666667	0.0666666666667	0.0	48.0	0.0333333333333	0.1333333333333	0.0666666666667	100.95122909545898	
3	93.30281209945679	response	0	e		0.16666667	0.0666666666667	0.0	48.0	0.0333333333333	0.1333333333333	0.0666666666667	101.47911715507507	
3	94.37481617927551	pulse	0	t		0.16666667	0.0666666666667	0.0	48.0	0.0333333333333	0.1333333333333	0.0666666666667	102.5511212348938	
3	95.97464609146118	pulse	0	t		0.16666667	0.0666666666667	0.0	48.0	0.0333333333333	0.1333333333333	0.0666666666667	104.15095114707947	
3	97.57465720176697	pulse	0	t		0.16666667	0.0666666666667	0.0	48.0	0.0333333333333	0.1333333333333	0.0666666666667	105.75096225738525	
3	98.1696150302887	response	0	e		0.16666667	0.0666666666667	0.0	48.0	0.0333333333333	0.1333333333333	0.0666666666667	106.34592008590698	
3	99.17448401451111	pulse	0	t		0.16666667	0.0666666666667	0.0	48.0	0.0333333333333	0.1333333333333	0.0666666666667	107.3507890701294	
3	100.77447509765625	pulse	0	t		0.16666667	0.0666666666667	0.0	48.0	0.0333333333333	0.1333333333333	0.0666666666667	108.95078015327454	
4	100.807697057724	stim	0		0	-1.0	1.0	-1.0	72.0	0.0333333333333	0.1333333333333	0.0666666666667	108.98400211334229	15.999990940093994
4	101.06621718406677	response	0	e		-1.0	1.0	-1.0	72.0	0.0333333333333	0.1333333333333	0.0666666666667	109.24252223968506	
4	102.37465119361877	pulse	0	t		-1.0	1.0	-1.0	72.0	0.0333333333333	0.1333333333333	0.0666666666667	110.55095624923706	
4	103.9762589931488	pulse	0	t		-1.0	1.0	-1.0	72.0	0.0333333333333	0.1333333333333	0.0666666666667	112.15256404876709	
4	105.57632899284363	pulse	0	t		-1.0	1.0	-1.0	72.0	0.0333333333333	0.1333333333333	0.0666666666667	113.75263404846191	
4	107.17631506919861	pulse	0	t		-1.0	1.0	-1.0	72.0	0.0333333333333	0.1333333333333	0.0666666666667	115.3526201248169	
4	107.43279910087585	response	0	e		-1.0	1.0	-1.0	72.0	0.0333333333333	0.1333333333333	0.0666666666667	115.60910415649414	
4	108.77624416351318	pulse	0	t		-1.0	1.0	-1.0	72.0	0.0333333333333	0.1333333333333	0.0666666666667	116.95254921913147	
4	110.37624502182007	pulse	0	t		-1.0	1.0	-1.0	72.0	0.0333333333333	0.1333333333333	0.0666666666667	118.55255007743835	
4	110.67463111877441	response	0	e		-1.0	1.0	-1.0	72.0	0.0333333333333	0.1333333333333	0.0666666666667	118.8509361743927	
4	111.97452402114868	pulse	0	t		-1.0	1.0	-1.0	72.0	0.0333333333333	0.1333333333333	0.0666666666667	120.15082907676697	
4	113.30962204933167	response	0	e		-1.0	1.0	-1.0	72.0	0.0333333333333	0.1333333333333	0.0666666666667	121.48592710494995	
4	113.57451105117798	pulse	0	t		-1.0	1.0	-1.0	72.0	0.0333333333333	0.1333333333333	0.0666666666667	121.75081610679626	
4	115.17451405525208	pulse	0	t		-1.0	1.0	-1.0	72.0	0.0333333333333	0.1333333333333	0.0666666666667	123.35081911087036	
4	116.77452802658081	pulse	0	t		-1.0	1.0	-1.0	72.0	0.0333333333333	0.1333333333333	0.0666666666667	124.9508330821991	
5	116.807687997818	stim	0		0	0.16666667	0.0666666666667	90.0	88.0	0.0333333333333	0.1333333333333	0.0666666666667	124.98399305343628	23.999847173690796
5	118.37437415122986	pulse	0	t		0.16666667	0.0666666666667	90.0	88.0	0.0333333333333	0.1333333333333	0.0666666666667	126.55067920684814	
5	118.7995011806488	response	0	e		0.16666667	0.0666666666667	90.0	88.0	0.0333333333333	0.1333333333333	0.0666666666667	126.97580623626709	
5	119.97522115707397	pulse	0	t		0.16666667	0.0666666666667	90.0	88.0	0.0333333333333	0.1333333333333	0.0666666666667	128.15152621269226	
5	121.57506513595581	pulse	0	t		0.16666667	0.0666666666667	90.0	88.0	0.0333333333333	0.1333333333333	0.0666666666667	129.7513701915741	
5	123.17502617835999	pulse	0	t		0.16666667	0.0666666666667	90.0	88.0	0.0333333333333	0.1333333333333	0.0666666666667	131.35133123397827	
5	124.13253903388977	response	0	e		0.16666667	0.0666666666667	90.0	88.0	0.0333333333333	0.1333333333333	0.0666666666667	132.30884408950806	
5	124.7749330997467	pulse	0	t		0.16666667	0.0666666666667	90.0	88.0	0.0333333333333	0.1333333333333	0.0666666666667	132.951238155365	
5	126.37487506866455	pulse	0	t		0.16666667	0.0666666666667	90.0	88.0	0.0333333333333	0.1333333333333	0.0666666666667	134.55118012428284	
5	127.97476410865784	pulse	0	t		0.16666667	0.0666666666667	90.0	88.0	0.0333333333333	0.1333333333333	0.0666666666667	136.15106916427612	
5	129.57470417022705	pulse	0	t		0.16666667	0.0666666666667	90.0	88.0	0.0333333333333	0.1333333333333	0.0666666666667	137.75100922584534	
5	131.141597032547	response	0	e		0.16666667	0.0666666666667	90.0	88.0	0.0333333333333	0.1333333333333	0.0666666666667	139.31790208816528	
5	131.1742820739746	pulse	0	t		0.16666667	0.0666666666667	90.0	88.0	0.0333333333333	0.1333333333333	0.0666666666667	139.3505871295929	
5	132.7744801044464	pulse	0	t		0.16666667	0.0666666666667	90.0	88.0	0.0333333333333	0.1333333333333	0.0666666666667	140.9507851600647	
5	133.5373890399933	response	0	e		0.16666667	0.0666666666667	90.0	88.0	0.0333333333333	0.1333333333333	0.0666666666667	141.71369409561157	
5	134.37435507774353	pulse	0	t		0.16666667	0.0666666666667	90.0	88.0	0.0333333333333	0.1333333333333	0.0666666666667	142.55066013336182	
5	135.54730200767517	response	0	e		0.16666667	0.0666666666667	90.0	88.0	0.0333333333333	0.1333333333333	0.0666666666667	143.72360706329346	
5	135.97515511512756	pulse	0	t		0.16666667	0.0666666666667	90.0	88.0	0.0333333333333	0.1333333333333	0.0666666666667	144.15146017074585	
5	137.57516312599182	pulse	0	t		0.16666667	0.0666666666667	90.0	88.0	0.0333333333333	0.1333333333333	0.0666666666667	145.7514681816101	
5	138.49207997322083	response	0	e		0.16666667	0.0666666666667	90.0	88.0	0.0333333333333	0.1333333333333	0.0666666666667	146.6683850288391	
5	139.1751229763031	pulse	0	t		0.16666667	0.0666666666667	90.0	88.0	0.0333333333333	0.1333333333333	0.0666666666667	147.3514280319214	
5	140.77494096755981	pulse	0	t		0.16666667	0.0666666666667	90.0	88.0	0.0333333333333	0.1333333333333	0.0666666666667	148.9512460231781	
6	140.8075351715088	stim	0		0	0.16666667	0.0666666666667	180.0	112.0	0.0333333333333	0.1333333333333	0.0666666666667	148.98384022712708	23.99152898788452
6	141.54492211341858	response	0	e		0.16666667	0.0666666666667	180.0	112.0	0.0333333333333	0.1333333333333	0.0666666666667	149.72122716903687	
6	142.37484002113342	pulse	0	t		0.16666667	0.0666666666667	180.0	112.0	0.0333333333333	0.1333333333333	0.0666666666667	150.5511450767517	
6	143.97474908828735	pulse	0	t		0.16666667	0.0666666666667	180.0	112.0	0.0333333333333	0.1333333333333	0.0666666666667	152.15105414390564	
6	145.5746660232544	pulse	0	t		0.16666667	0.0666666666667	180.0	112.0	0.0333333333333	0.1333333333333	0.0666666666667	153.75097107887268	
6	145.68952298164368	response	0	e		0.16666667	0.0666666666667	180.0	112.0	0.0333333333333	0.1333333333333	0.0666666666667	153.86582803726196	
6	147.17454504966736	pulse	0	t		0.16666667	0.0666666666667	180.0	112.0	0.0333333333333	0.1333333333333	0.0666666666667	155.35085010528564	
6	148.0619649887085	response	0	e		0.16666667	0.0666666666667	180.0	112.0	0.0333333333333	0.1333333333333	0.0666666666667	156.23827004432678	
6	148.77445602416992	pulse	0	t		0.16666667	0.0666666666667	180.0	112.0	0.0333333333333	0.1333333333333	0.0666666666667	156.9507610797882	
6	150.2153661251068	response	0	e		0.16666667	0.0666666666667	180.0	112.0	0.0333333333333	0.1333333333333	0.0666666666667	158.3916711807251	
6	150.37424397468567	pulse	0	t		0.16666667	0.0666666666667	180.0	112.0	0.0333333333333	0.1333333333333	0.0666666666667	158.55054903030396	
6	151.97530603408813	pulse	0	t		0.16666667	0.0666666666667	180.0	112.0	0.0333333333333	0.1333333333333	0.0666666666667	160.15161108970642	
6	153.57515001296997	pulse	0	t		0.16666667	0.0666666666667	180.0	112.0	0.0333333333333	0.1333333333333	0.0666666666667	161.75145506858826	
6	154.03812408447266	response	0	e		0.16666667	0.0666666666667	180.0	112.0	0.0333333333333	0.1333333333333	0.0666666666667	162.21442914009094	
6	155.17508816719055	pulse	0	t		0.16666667	0.0666666666667	180.0	112.0	0.0333333333333	0.1333333333333	0.0666666666667	163.35139322280884	
6	156.61701202392578	response	0	e		0.16666667	0.0666666666667	180.0	112.0	0.0333333333333	0.1333333333333	0.0666666666667	164.79331707954407	
6	156.77482509613037	pulse	0	t		0.16666667	0.0666666666667	180.0	112.0	0.0333333333333	0.1333333333333	0.0666666666667	164.95113015174866	
6	158.37490606307983	pulse	0	t		0.16666667	0.0666666666667	180.0	112.0	0.0333333333333	0.1333333333333	0.0666666666667	166.55121111869812	
6	159.6138219833374	response	0	e		0.16666667	0.0666666666667	180.0	112.0	0.0333333333333	0.1333333333333	0.0666666666667	167.7901270389557	
6	159.97469902038574	pulse	0	t		0.16666667	0.0666666666667	180.0	112.0	0.0333333333333	0.1333333333333	0.0666666666667	168.15100407600403	
6	161.5746991634369	pulse	0	t		0.16666667	0.0666666666667	180.0	112.0	0.0333333333333	0.1333333333333	0.0666666666667	169.75100421905518	
6	162.93257117271423	response	0	e		0.16666667	0.0666666666667	180.0	112.0	0.0333333333333	0.1333333333333	0.0666666666667	171.10887622833252	
6	163.17447018623352	pulse	0	t		0.16666667	0.0666666666667	180.0	112.0	0.0333333333333	0.1333333333333	0.0666666666667	171.3507752418518	
6	164.77456712722778	pulse	0	t		0.16666667	0.0666666666667	180.0	112.0	0.0333333333333	0.1333333333333	0.0666666666667	172.95087218284607	
7	164.7990641593933	stim	0		0	-1.0	1.0	-1.0	136.0	0.0333333333333	0.1333333333333	0.0666666666667	172.9753692150116	16.008195877075195
7	166.37600803375244	pulse	0	t		-1.0	1.0	-1.0	136.0	0.0333333333333	0.1333333333333	0.0666666666667	174.55231308937073	
7	167.9760181903839	pulse	0	t		-1.0	1.0	-1.0	136.0	0.0333333333333	0.1333333333333	0.0666666666667	176.1523232460022	
7	169.08431315422058	response	0	e		-1.0	1.0	-1.0	136.0	0.0333333333333	0.1333333333333	0.0666666666667	177.26061820983887	
7	169.5759241580963	pulse	0	t		-1.0	1.0	-1.0	136.0	0.0333333333333	0.1333333333333	0.0666666666667	177.7522292137146	
7	171.17602610588074	pulse	0	t		-1.0	1.0	-1.0	136.0	0.0333333333333	0.1333333333333	0.0666666666667	179.35233116149902	
7	172.77599215507507	pulse	0	t		-1.0	1.0	-1.0	136.0	0.0333333333333	0.1333333333333	0.0666666666667	180.95229721069336	
7	174.37601900100708	pulse	0	t		-1.0	1.0	-1.0	136.0	0.0333333333333	0.1333333333333	0.0666666666667	182.55232405662537	
7	174.72409510612488	response	0	e		-1.0	1.0	-1.0	136.0	0.0333333333333	0.1333333333333	0.0666666666667	182.90040016174316	
7	175.97594714164734	pulse	0	t		-1.0	1.0	-1.0	136.0	0.0333333333333	0.1333333333333	0.0666666666667	184.15225219726562	
7	177.20704817771912	response	0	e		-1.0	1.0	-1.0	136.0	0.0333333333333	0.1333333333333	0.0666666666667	185.3833532333374	
7	177.57589411735535	pulse	0	t		-1.0	1.0	-1.0	136.0	0.0333333333333	0.1333333333333	0.0666666666667	185.75219917297363	
7	179.17555499076843	pulse	0	t		-1.0	1.0	-1.0	136.0	0.0333333333333	0.1333333333333	0.0666666666667	187.35186004638672	
7	180.77575302124023	pulse	0	t		-1.0	1.0	-1.0	136.0	0.0333333333333	0.1333333333333	0.0666666666667	188.95205807685852	
8	180.8072600364685	stim	0		0	-1.0	1.0	-1.0	152.0	0.0333333333333	0.1333333333333	0.0666666666667	188.9835650920868	16.000005960464478
8	182.3758180141449	pulse	0	t		-1.0	1.0	-1.0	152.0	0.0333333333333	0.1333333333333	0.0666666666667	190.55212306976318	
8	183.9758939743042	pulse	0	t		-1.0	1.0	-1.0	152.0	0.0333333333333	0.1333333333333	0.0666666666667	192.15219902992249	
8	184.27412819862366	response	0	e		-1.0	1.0	-1.0	152.0	0.0333333333333	0.1333333333333	0.0666666666667	192.45043325424194	
8	185.57593703269958	pulse	0	t		-1.0	1.0	-1.0	152.0	0.0333333333333	0.1333333333333	0.0666666666667	193.75224208831787	
8	187.17587113380432	pulse	0	t		-1.0	1.0	-1.0	152.0	0.0333333333333	0.1333333333333	0.0666666666667	195.3521761894226	
8	188.64908409118652	response	0	e		-1.0	1.0	-1.0	152.0	0.0333333333333	0.1333333333333	0.0666666666667	196.8253891468048	
8	188.77583408355713	pulse	0	t		-1.0	1.0	-1.0	152.0	0.0333333333333	0.1333333333333	0.0666666666667	196.95213913917542	
8	190.37592911720276	pulse	0	t		-1.0	1.0	-1.0	152.0	0.0333333333333	0.1333333333333	0.0666666666667	198.55223417282104	
8	191.97596406936646	pulse	0	t		-1.0	1.0	-1.0	152.0	0.0333333333333	0.1333333333333	0.0666666666667	200.15226912498474	
8	192.20911598205566	response	0	e		-1.0	1.0	-1.0	152.0	0.0333333333333	0.1333333333333	0.0666666666667	200.38542103767395	
8	193.57582116127014	pulse	0	t		-1.0	1.0	-1.0	152.0	0.0333333333333	0.1333333333333	0.0666666666667	201.75212621688843	
8	195.17585110664368	pulse	0	t		-1.0	1.0	-1.0	152.0	0.0333333333333	0.1333333333333	0.0666666666667	203.35215616226196	
8	196.7757830619812	pulse	0	t		-1.0	1.0	-1.0	152.0	0.0333333333333	0.1333333333333	0.0666666666667	204.9520881175995	
9	196.80726599693298	stim	0		0	0.16666667	0.0666666666667	180.0	168.0	0.0333333333333	0.1333333333333	0.0666666666667	204.98357105255127	23.991538047790527
9	197.8555130958557	response	0	e		0.16666667	0.0666666666667	180.0	168.0	0.0333333333333	0.1333333333333	0.0666666666667	206.031818151474	
9	198.37441611289978	pulse	0	t		0.16666667	0.0666666666667	180.0	168.0	0.0333333333333	0.1333333333333	0.0666666666667	206.55072116851807	
9	199.9743731021881	pulse	0	t		0.16666667	0.0666666666667	180.0	168.0	0.0333333333333	0.1333333333333	0.0666666666667	208.1506781578064	
9	201.57527899742126	pulse	0	t		0.16666667	0.0666666666667	180.0	168.0	0.0333333333333	0.1333333333333	0.0666666666667	209.75158405303955	
9	201.66709399223328	response	0	e		0.16666667	0.0666666666667	180.0	168.0	0.0333333333333	0.1333333333333	0.0666666666667	209.84339904785156	
9	203.175124168396	pulse	0	t		0.16666667	0.0666666666667	180.0	168.0	0.0333333333333	0.1333333333333	0.0666666666667	211.35142922401428	
9	204.77504301071167	pulse	0	t		0.16666667	0.0666666666667	180.0	168.0	0.0333333333333	0.1333333333333	0.0666666666667	212.95134806632996	
9	206.37494897842407	pulse	0	t		0.16666667	0.0666666666667	180.0	168.0	0.0333333333333	0.1333333333333	0.0666666666667	214.55125403404236	
9	207.97490000724792	pulse	0	t		0.16666667	0.0666666666667	180.0	168.0	0.0333333333333	0.1333333333333	0.0666666666667	216.1512050628662	
9	209.5747811794281	pulse	0	t		0.16666667	0.0666666666667	180.0	168.0	0.0333333333333	0.1333333333333	0.0666666666667	217.7510862350464	
9	210.5657320022583	response	0	e		0.16666667	0.0666666666667	180.0	168.0	0.0333333333333	0.1333333333333	0.0666666666667	218.7420370578766	
9	211.17464804649353	pulse	0	t		0.16666667	0.0666666666667	180.0	168.0	0.0333333333333	0.1333333333333	0.0666666666667	219.35095310211182	
9	212.77462601661682	pulse	0	t		0.16666667	0.0666666666667	180.0	168.0	0.0333333333333	0.1333333333333	0.0666666666667	220.9509310722351	
9	214.37445998191833	pulse	0	t		0.16666667	0.0666666666667	180.0	168.0	0.0333333333333	0.1333333333333	0.0666666666667	222.55076503753662	
9	215.9744520187378	pulse	0	t		0.16666667	0.0666666666667	180.0	168.0	0.0333333333333	0.1333333333333	0.0666666666667	224.15075707435608	
9	217.17630910873413	response	0	e		0.16666667	0.0666666666667	180.0	168.0	0.0333333333333	0.1333333333333	0.0666666666667	225.35261416435242	
9	217.57520413398743	pulse	0	t		0.16666667	0.0666666666667	180.0	168.0	0.0333333333333	0.1333333333333	0.0666666666667	225.7515091896057	
9	219.17518305778503	pulse	0	t		0.16666667	0.0666666666667	180.0	168.0	0.0333333333333	0.1333333333333	0.0666666666667	227.35148811340332	
9	220.65615797042847	response	0	e		0.16666667	0.0666666666667	180.0	168.0	0.0333333333333	0.1333333333333	0.0666666666667	228.83246302604675	
9	220.77498817443848	pulse	0	t		0.16666667	0.0666666666667	180.0	168.0	0.0333333333333	0.1333333333333	0.0666666666667	228.95129323005676	
10	220.7988040447235	stim	0		0	0.16666667	0.0666666666667	90.0	192.0	0.0333333333333	0.1333333333333	0.0666666666667	228.9751091003418	24.008217096328735
10	222.37540698051453	pulse	0	t		0.16666667	0.0666666666667	90.0	192.0	0.0333333333333	0.1333333333333	0.0666666666667	230.5517120361328	
10	223.9748740196228	pulse	0	t		0.16666667	0.0666666666667	90.0	192.0	0.0333333333333	0.1333333333333	0.0666666666667	232.1511790752411	
10	224.63287711143494	response	0	e		0.16666667	0.0666666666667	90.0	192.0	0.0333333333333	0.1333333333333	0.0666666666667	232.80918216705322	
10	225.5747971534729	pulse	0	t		0.16666667	0.0666666666667	90.0	192.0	0.0333333333333	0.1333333333333	0.0666666666667	233.7511022090912	
10	227.17473316192627	pulse	0	t		0.16666667	0.0666666666667	90.0	192.0	0.0333333333333	0.1333333333333	0.0666666666667	235.35103821754456	
10	228.30766105651855	response	0	e		0.16666667	0.0666666666667	90.0	192.0	0.0333333333333	0.1333333333333	0.0666666666667	236.48396611213684	
10	228.77455711364746	pulse	0	t		0.16666667	0.0666666666667	90.0	192.0	0.0333333333333	0.1333333333333	0.0666666666667	236.95086216926575	
10	230.374577999115	pulse	0	t		0.16666667	0.0666666666667	90.0	192.0	0.0333333333333	0.1333333333333	0.0666666666667	238.55088305473328	
10	231.97440004348755	pulse	0	t		0.16666667	0.0666666666667	90.0	192.0	0.0333333333333	0.1333333333333	0.0666666666667	240.15070509910583	
10	233.57529997825623	pulse	0	t		0.16666667	0.0666666666667	90.0	192.0	0.0333333333333	0.1333333333333	0.0666666666667	241.7516050338745	
10	235.17521715164185	pulse	0	t		0.16666667	0.0666666666667	90.0	192.0	0.0333333333333	0.1333333333333	0.0666666666667	243.35152220726013	
10	236.77512907981873	pulse	0	t		0.16666667	0.0666666666667	90.0	192.0	0.0333333333333	0.1333333333333	0.0666666666667	244.951434135437	
10	238.37508296966553	pulse	0	t		0.16666667	0.0666666666667	90.0	192.0	0.0333333333333	0.1333333333333	0.0666666666667	246.5513880252838	
10	239.97498512268066	pulse	0	t		0.16666667	0.0666666666667	90.0	192.0	0.0333333333333	0.1333333333333	0.0666666666667	248.15129017829895	
10	240.30985307693481	response	0	e		0.16666667	0.0666666666667	90.0	192.0	0.0333333333333	0.1333333333333	0.0666666666667	248.4861581325531	
10	241.57487201690674	pulse	0	t		0.16666667	0.0666666666667	90.0	192.0	0.0333333333333	0.1333333333333	0.0666666666667	249.75117707252502	
10	243.17471408843994	pulse	0	t		0.16666667	0.0666666666667	90.0	192.0	0.0333333333333	0.1333333333333	0.0666666666667	251.35101914405823	
10	244.77465415000916	pulse	0	t		0.16666667	0.0666666666667	90.0	192.0	0.0333333333333	0.1333333333333	0.0666666666667	252.95095920562744	
11	244.80702114105225	stim	0		0	-1.0	1.0	-1.0	216.0	0.0333333333333	0.1333333333333	0.0666666666667	252.98332619667053	15.999907970428467
11	246.37567710876465	pulse	0	t		-1.0	1.0	-1.0	216.0	0.0333333333333	0.1333333333333	0.0666666666667	254.55198216438293	
11	247.97549104690552	pulse	0	t		-1.0	1.0	-1.0	216.0	0.0333333333333	0.1333333333333	0.0666666666667	256.1517961025238	
11	249.57566714286804	pulse	0	t		-1.0	1.0	-1.0	216.0	0.0333333333333	0.1333333333333	0.0666666666667	257.7519721984863	
11	251.10892415046692	response	0	e		-1.0	1.0	-1.0	216.0	0.0333333333333	0.1333333333333	0.0666666666667	259.2852292060852	
11	251.1755120754242	pulse	0	t		-1.0	1.0	-1.0	216.0	0.0333333333333	0.1333333333333	0.0666666666667	259.3518171310425	
11	252.77559804916382	pulse	0	t		-1.0	1.0	-1.0	216.0	0.0333333333333	0.1333333333333	0.0666666666667	260.9519031047821	
11	254.37557816505432	pulse	0	t		-1.0	1.0	-1.0	216.0	0.0333333333333	0.1333333333333	0.0666666666667	262.5518832206726	
11	255.22385716438293	response	0	e		-1.0	1.0	-1.0	216.0	0.0333333333333	0.1333333333333	0.0666666666667	263.4001622200012	
11	255.97555804252625	pulse	0	t		-1.0	1.0	-1.0	216.0	0.0333333333333	0.1333333333333	0.0666666666667	264.15186309814453	
11	257.57560205459595	pulse	0	t		-1.0	1.0	-1.0	216.0	0.0333333333333	0.1333333333333	0.0666666666667	265.75190711021423	
11	259.0487689971924	response	0	e		-1.0	1.0	-1.0	216.0	0.0333333333333	0.1333333333333	0.0666666666667	267.22507405281067	
11	259.17555713653564	pulse	0	t		-1.0	1.0	-1.0	216.0	0.0333333333333	0.1333333333333	0.0666666666667	267.35186219215393	
11	260.77572298049927	pulse	0	t		-1.0	1.0	-1.0	216.0	0.0333333333333	0.1333333333333	0.0666666666667	268.95202803611755	
12	260.8069291114807	stim	0		0	0.16666667	0.0666666666667	0.0	232.0	0.0333333333333	0.1333333333333	0.0666666666667	268.983234167099	23.99987292289734
12	261.8136501312256	response	0	e		0.16666667	0.0666666666667	0.0	232.0	0.0333333333333	0.1333333333333	0.0666666666667	269.9899551868439	
12	262.37455797195435	pulse	0	t		0.16666667	0.0666666666667	0.0	232.0	0.0333333333333	0.1333333333333	0.0666666666667	270.55086302757263	
12	263.97451305389404	pulse	0	t		0.16666667	0.0666666666667	0.0	232.0	0.0333333333333	0.1333333333333	0.0666666666667	272.15081810951233	
12	264.1453711986542	response	0	e		0.16666667	0.0666666666667	0.0	232.0	0.0333333333333	0.1333333333333	0.0666666666667	272.32167625427246	
12	265.57542300224304	pulse	0	t		0.16666667	0.0666666666667	0.0	232.0	0.0333333333333	0.1333333333333	0.0666666666667	273.7517280578613	
12	266.7988131046295	response	0	e		0.16666667	0.0666666666667	0.0	232.0	0.0333333333333	0.1333333333333	0.0666666666667	274.9751181602478	
12	267.1752450466156	pulse	0	t		0.16666667	0.0666666666667	0.0	232.0	0.0333333333333	0.1333333333333	0.0666666666667	275.3515501022339	
12	268.77518916130066	pulse	0	t		0.16666667	0.0666666666667	0.0	232.0	0.0333333333333	0.1333333333333	0.0666666666667	276.95149421691895	
12	270.3750991821289	pulse	0	t		0.16666667	0.0666666666667	0.0	232.0	0.0333333333333	0.1333333333333	0.0666666666667	278.5514042377472	
12	270.51695919036865	response	0	e		0.16666667	0.0666666666667	0.0	232.0	0.0333333333333	0.1333333333333	0.0666666666667	278.69326424598694	
12	271.97505497932434	pulse	0	t		0.16666667	0.0666666666667	0.0	232.0	0.0333333333333	0.1333333333333	0.0666666666667	280.1513600349426	
12	273.5749080181122	pulse	0	t		0.16666667	0.0666666666667	0.0	232.0	0.0333333333333	0.1333333333333	0.0666666666667	281.75121307373047	
12	275.1747851371765	pulse	0	t		0.16666667	0.0666666666667	0.0	232.0	0.0333333333333	0.1333333333333	0.0666666666667	283.3510901927948	
12	275.7087650299072	response	0	e		0.16666667	0.0666666666667	0.0	232.0	0.0333333333333	0.1333333333333	0.0666666666667	283.8850700855255	
12	276.7747411727905	pulse	0	t		0.16666667	0.0666666666667	0.0	232.0	0.0333333333333	0.1333333333333	0.0666666666667	284.9510462284088	
12	278.37463116645813	pulse	0	t		0.16666667	0.0666666666667	0.0	232.0	0.0333333333333	0.1333333333333	0.0666666666667	286.5509362220764	
12	278.89659905433655	response	0	e		0.16666667	0.0666666666667	0.0	232.0	0.0333333333333	0.1333333333333	0.0666666666667	287.07290410995483	
12	279.97549319267273	pulse	0	t		0.16666667	0.0666666666667	0.0	232.0	0.0333333333333	0.1333333333333	0.0666666666667	288.151798248291	
12	281.5754361152649	pulse	0	t		0.16666667	0.0666666666667	0.0	232.0	0.0333333333333	0.1333333333333	0.0666666666667	289.7517411708832	
12	283.17535519599915	pulse	0	t		0.16666667	0.0666666666667	0.0	232.0	0.0333333333333	0.1333333333333	0.0666666666667	291.35166025161743	
12	283.8103120326996	response	0	e		0.16666667	0.0666666666667	0.0	232.0	0.0333333333333	0.1333333333333	0.0666666666667	291.98661708831787	
12	284.77521800994873	pulse	0	t		0.16666667	0.0666666666667	0.0	232.0	0.0333333333333	0.1333333333333	0.0666666666667	292.951523065567	
13	284.80680203437805	stim	0		0	0.16666667	0.0666666666667	270.0	256.0	0.0333333333333	0.1333333333333	0.0666666666667	292.98310708999634	23.991567134857178
13	286.3750970363617	pulse	0	t		0.16666667	0.0666666666667	270.0	256.0	0.0333333333333	0.1333333333333	0.0666666666667	294.55140209198	
13	286.61795806884766	response	0	e		0.16666667	0.0666666666667	270.0	256.0	0.0333333333333	0.1333333333333	0.0666666666667	294.79426312446594	
13	287.9749610424042	pulse	0	t		0.16666667	0.0666666666667	270.0	256.0	0.0333333333333	0.1333333333333	0.0666666666667	296.15126609802246	
13	288.92386198043823	response	0	e		0.16666667	0.0666666666667	270.0	256.0	0.0333333333333	0.1333333333333	0.0666666666667	297.1001670360565	
13	289.57482409477234	pulse	0	t		0.16666667	0.0666666666667	270.0	256.0	0.0333333333333	0.1333333333333	0.0666666666667	297.7511291503906	
13	291.17480516433716	pulse	0	t		0.16666667	0.0666666666667	270.0	256.0	0.0333333333333	0.1333333333333	0.0666666666667	299.35111021995544	
13	292.77475118637085	pulse	0	t		0.16666667	0.0666666666667	270.0	256.0	0.0333333333333	0.1333333333333	0.0666666666667	300.95105624198914	
13	294.37464213371277	pulse	0	t		0.16666667	0.0666666666667	270.0	256.0	0.0333333333333	0.1333333333333	0.0666666666667	302.55094718933105	
13	295.14754605293274	response	0	e		0.16666667	0.0666666666667	270.0	256.0	0.0333333333333	0.1333333333333	0.0666666666667	303.323851108551	
13	295.9745421409607	pulse	0	t		0.16666667	0.0666666666667	270.0	256.0	0.0333333333333	0.1333333333333	0.0666666666667	304.150847196579	
13	297.5754210948944	pulse	0	t		0.16666667	0.0666666666667	270.0	256.0	0.0333333333333	0.1333333333333	0.0666666666667	305.7517261505127	
13	299.1752781867981	pulse	0	t		0.16666667	0.0666666666667	270.0	256.0	0.0333333333333	0.1333333333333	0.0666666666667	307.3515832424164	
13	300.01932406425476	response	0	e		0.16666667	0.0666666666667	270.0	256.0	0.0333333333333	0.1333333333333	0.0666666666667	308.19562911987305	
13	300.77517199516296	pulse	0	t		0.16666667	0.0666666666667	270.0	256.0	0.0333333333333	0.1333333333333	0.0666666666667	308.95147705078125	
13	302.37513518333435	pulse	0	t		0.16666667	0.0666666666667	270.0	256.0	0.0333333333333	0.1333333333333	0.0666666666667	310.55144023895264	
13	303.5318841934204	response	0	e		0.16666667	0.0666666666667	270.0	256.0	0.0333333333333	0.1333333333333	0.0666666666667	311.7081892490387	
13	303.9749581813812	pulse	0	t		0.16666667	0.0666666666667	270.0	256.0	0.0333333333333	0.1333333333333	0.0666666666667	312.1512632369995	
13	305.5750181674957	pulse	0	t		0.16666667	0.0666666666667	270.0	256.0	0.0333333333333	0.1333333333333	0.0666666666667	313.751323223114	
13	307.0218331813812	response	0	e		0.16666667	0.0666666666667	270.0	256.0	0.0333333333333	0.1333333333333	0.0666666666667	315.1981382369995	
13	307.17467403411865	pulse	0	t		0.16666667	0.0666666666667	270.0	256.0	0.0333333333333	0.1333333333333	0.0666666666667	315.35097908973694	
13	308.7746961116791	pulse	0	t		0.16666667	0.0666666666667	270.0	256.0	0.0333333333333	0.1333333333333	0.0666666666667	316.95100116729736	
14	308.79836916923523	stim	0		0								316.9746742248535	24.424998998641968
14	310.3752269744873	pulse	0	t									318.5515320301056	
14	311.28183913230896	response	0	e									319.45814418792725	
14	311.9818060398102	pulse	0	t									320.15811109542847	
14	313.5817701816559	pulse	0	t									321.75807523727417	
14	314.7901220321655	response	0	e									322.9664270877838	
14	315.1817910671234	pulse	0	t									323.3580961227417	
14	316.77525210380554	pulse	0	t									324.9515571594238	
14	318.375333070755	pulse	0	t									326.5516381263733	
14	318.8984990119934	response	0	e									327.0748040676117	
14	319.9753210544586	pulse	0	t									328.1516261100769	
14	321.5752890110016	pulse	0	t									329.7515940666199	
14	321.8567910194397	response	0	e									330.033096075058	
14	323.17520117759705	pulse	0	t									331.35150623321533	
14	323.82349610328674	response	0	e									331.99980115890503	
14	324.77522897720337	pulse	0	t									332.95153403282166	
14	326.3752110004425	pulse	0	t									334.5515160560608	
14	326.6234951019287	response	0	e									334.799800157547	
14	327.981742143631	pulse	0	t									336.15804719924927	
14	329.5818099975586	pulse	0	t									337.7581150531769	
14	330.72343015670776	response	0	e									338.89973521232605	
14	331.18172907829285	pulse	0	t									339.35803413391113	
14	332.7750949859619	pulse	0	t									340.9514000415802	
