trial_nr	onset	event_type	phase	response	nr_frames	bar_width	bar_refresh_time	bar_direction	start_time	bar_blank_duration	bar_blank_interval	bg_stim_refresh_time	onset_abs	duration
0	0.14111590385437012	stim	0		0								161.31147384643555	2.0838119983673096
0	2.2169458866119385	response	0	space									163.38730382919312	
1	2.2249279022216797	stim	0		0								163.39528584480286	38.62475299835205
1	40.83401584625244	pulse	0	t									202.00437378883362	
1	40.84968090057373	stim	1		0								202.0200388431549	24.008322954177856
1	42.43319296836853	pulse	1	t									203.6035509109497	
1	44.03324484825134	pulse	1	t									205.20360279083252	
1	45.633198976516724	pulse	1	t									206.8035569190979	
1	47.23324990272522	pulse	1	t									208.4036078453064	
1	48.83318781852722	pulse	1	t									210.0035457611084	
1	50.43339991569519	pulse	1	t									211.60375785827637	
1	52.033201932907104	pulse	1	t									213.20355987548828	
1	53.633174896240234	pulse	1	t									214.8035328388214	
1	55.23312783241272	pulse	1	t									216.4034857749939	
1	56.833149909973145	pulse	1	t									218.00350785255432	
1	58.43315291404724	pulse	1	t									219.60351085662842	
1	60.03311491012573	pulse	1	t									221.2034728527069	
1	61.63310885429382	pulse	1	t									222.803466796875	
1	63.23308992385864	pulse	1	t									224.40344786643982	
1	64.83309888839722	pulse	1	t									226.0034568309784	
2	64.85800385475159	stim	0		0	0.16666667	0.0666666666667	270.0	24.0	0.0333333333333	0.1333333333333	0.0666666666667	226.02836179733276	23.991501092910767
2	66.42900204658508	pulse	0	t		0.16666667	0.0666666666667	270.0	24.0	0.0333333333333	0.1333333333333	0.0666666666667	227.59935998916626	
2	68.028568983078	pulse	0	t		0.16666667	0.0666666666667	270.0	24.0	0.0333333333333	0.1333333333333	0.0666666666667	229.19892692565918	
2	69.19546604156494	response	0	r		0.16666667	0.0666666666667	270.0	24.0	0.0333333333333	0.1333333333333	0.0666666666667	230.36582398414612	
2	69.62836790084839	pulse	0	t		0.16666667	0.0666666666667	270.0	24.0	0.0333333333333	0.1333333333333	0.0666666666667	230.79872584342957	
2	71.22837901115417	pulse	0	t		0.16666667	0.0666666666667	270.0	24.0	0.0333333333333	0.1333333333333	0.0666666666667	232.39873695373535	
2	72.82821202278137	pulse	0	t		0.16666667	0.0666666666667	270.0	24.0	0.0333333333333	0.1333333333333	0.0666666666667	233.99856996536255	
2	74.42812085151672	pulse	0	t		0.16666667	0.0666666666667	270.0	24.0	0.0333333333333	0.1333333333333	0.0666666666667	235.5984787940979	
2	76.0280818939209	pulse	0	t		0.16666667	0.0666666666667	270.0	24.0	0.0333333333333	0.1333333333333	0.0666666666667	237.19843983650208	
2	76.62104296684265	response	0	r		0.16666667	0.0666666666667	270.0	24.0	0.0333333333333	0.1333333333333	0.0666666666667	237.79140090942383	
2	77.62784790992737	pulse	0	t		0.16666667	0.0666666666667	270.0	24.0	0.0333333333333	0.1333333333333	0.0666666666667	238.79820585250854	
2	79.22882795333862	pulse	0	t		0.16666667	0.0666666666667	270.0	24.0	0.0333333333333	0.1333333333333	0.0666666666667	240.3991858959198	
2	80.82874393463135	pulse	0	t		0.16666667	0.0666666666667	270.0	24.0	0.0333333333333	0.1333333333333	0.0666666666667	241.99910187721252	
2	82.4286880493164	pulse	0	t		0.16666667	0.0666666666667	270.0	24.0	0.0333333333333	0.1333333333333	0.0666666666667	243.59904599189758	
2	82.72758293151855	response	0	r		0.16666667	0.0666666666667	270.0	24.0	0.0333333333333	0.1333333333333	0.0666666666667	243.89794087409973	
2	84.02856683731079	pulse	0	t		0.16666667	0.0666666666667	270.0	24.0	0.0333333333333	0.1333333333333	0.0666666666667	245.19892477989197	
2	85.61948990821838	response	0	r		0.16666667	0.0666666666667	270.0	24.0	0.0333333333333	0.1333333333333	0.0666666666667	246.78984785079956	
2	85.6282708644867	pulse	0	t		0.16666667	0.0666666666667	270.0	24.0	0.0333333333333	0.1333333333333	0.0666666666667	246.79862880706787	
2	87.22836399078369	pulse	0	t		0.16666667	0.0666666666667	270.0	24.0	0.0333333333333	0.1333333333333	0.0666666666667	248.39872193336487	
2	88.82827186584473	pulse	0	t		0.16666667	0.0666666666667	270.0	24.0	0.0333333333333	0.1333333333333	0.0666666666667	249.9986298084259	
3	88.84950494766235	stim	0		0	0.16666667	0.0666666666667	0.0	48.0	0.0333333333333	0.1333333333333	0.0666666666667	250.01986289024353	23.99982500076294
3	90.42832684516907	pulse	0	t		0.16666667	0.0666666666667	0.0	48.0	0.0333333333333	0.1333333333333	0.0666666666667	251.59868478775024	
3	92.02809405326843	pulse	0	t		0.16666667	0.0666666666667	0.0	48.0	0.0333333333333	0.1333333333333	0.0666666666667	253.1984519958496	
3	93.00197291374207	response	0	r		0.16666667	0.0666666666667	0.0	48.0	0.0333333333333	0.1333333333333	0.0666666666667	254.17233085632324	
3	93.62791895866394	pulse	0	t		0.16666667	0.0666666666667	0.0	48.0	0.0333333333333	0.1333333333333	0.0666666666667	254.79827690124512	
3	95.2288749217987	pulse	0	t		0.16666667	0.0666666666667	0.0	48.0	0.0333333333333	0.1333333333333	0.0666666666667	256.3992328643799	
3	96.82881999015808	pulse	0	t		0.16666667	0.0666666666667	0.0	48.0	0.0333333333333	0.1333333333333	0.0666666666667	257.99917793273926	
3	97.05869698524475	response	0	r		0.16666667	0.0666666666667	0.0	48.0	0.0333333333333	0.1333333333333	0.0666666666667	258.2290549278259	
3	98.4287178516388	pulse	0	t		0.16666667	0.0666666666667	0.0	48.0	0.0333333333333	0.1333333333333	0.0666666666667	259.59907579421997	
3	100.0286648273468	pulse	0	t		0.16666667	0.0666666666667	0.0	48.0	0.0333333333333	0.1333333333333	0.0666666666667	261.199022769928	
3	100.81257104873657	response	0	r		0.16666667	0.0666666666667	0.0	48.0	0.0333333333333	0.1333333333333	0.0666666666667	261.98292899131775	
3	101.62854599952698	pulse	0	t		0.16666667	0.0666666666667	0.0	48.0	0.0333333333333	0.1333333333333	0.0666666666667	262.79890394210815	
3	103.22839093208313	pulse	0	t		0.16666667	0.0666666666667	0.0	48.0	0.0333333333333	0.1333333333333	0.0666666666667	264.3987488746643	
3	104.82829093933105	pulse	0	t		0.16666667	0.0666666666667	0.0	48.0	0.0333333333333	0.1333333333333	0.0666666666667	265.99864888191223	
3	106.42819499969482	pulse	0	t		0.16666667	0.0666666666667	0.0	48.0	0.0333333333333	0.1333333333333	0.0666666666667	267.598552942276	
3	108.02805304527283	pulse	0	t		0.16666667	0.0666666666667	0.0	48.0	0.0333333333333	0.1333333333333	0.0666666666667	269.198410987854	
3	109.22604084014893	response	0	r		0.16666667	0.0666666666667	0.0	48.0	0.0333333333333	0.1333333333333	0.0666666666667	270.3963987827301	
3	109.62799000740051	pulse	0	t		0.16666667	0.0666666666667	0.0	48.0	0.0333333333333	0.1333333333333	0.0666666666667	270.7983479499817	
3	111.22891998291016	pulse	0	t		0.16666667	0.0666666666667	0.0	48.0	0.0333333333333	0.1333333333333	0.0666666666667	272.39927792549133	
3	112.82876682281494	pulse	0	t		0.16666667	0.0666666666667	0.0	48.0	0.0333333333333	0.1333333333333	0.0666666666667	273.9991247653961	
4	112.8493299484253	stim	0		0	-1.0	1.0	-1.0	72.0	0.0333333333333	0.1333333333333	0.0666666666667	274.01968789100647	16.008327960968018
4	113.17640805244446	response	0	r		-1.0	1.0	-1.0	72.0	0.0333333333333	0.1333333333333	0.0666666666667	274.34676599502563	
4	114.43288087844849	pulse	0	t		-1.0	1.0	-1.0	72.0	0.0333333333333	0.1333333333333	0.0666666666667	275.60323882102966	
4	116.03290295600891	pulse	0	t		-1.0	1.0	-1.0	72.0	0.0333333333333	0.1333333333333	0.0666666666667	277.2032608985901	
4	116.74952483177185	response	0	r		-1.0	1.0	-1.0	72.0	0.0333333333333	0.1333333333333	0.0666666666667	277.919882774353	
4	117.63287997245789	pulse	0	t		-1.0	1.0	-1.0	72.0	0.0333333333333	0.1333333333333	0.0666666666667	278.80323791503906	
4	119.23297691345215	pulse	0	t		-1.0	1.0	-1.0	72.0	0.0333333333333	0.1333333333333	0.0666666666667	280.4033348560333	
4	120.83286094665527	pulse	0	t		-1.0	1.0	-1.0	72.0	0.0333333333333	0.1333333333333	0.0666666666667	282.00321888923645	
4	122.43285799026489	pulse	0	t		-1.0	1.0	-1.0	72.0	0.0333333333333	0.1333333333333	0.0666666666667	283.60321593284607	
4	124.03283095359802	pulse	0	t		-1.0	1.0	-1.0	72.0	0.0333333333333	0.1333333333333	0.0666666666667	285.2031888961792	
4	124.1828339099884	response	0	r		-1.0	1.0	-1.0	72.0	0.0333333333333	0.1333333333333	0.0666666666667	285.3531918525696	
4	125.6328330039978	pulse	0	t		-1.0	1.0	-1.0	72.0	0.0333333333333	0.1333333333333	0.0666666666667	286.803190946579	
4	127.23288202285767	pulse	0	t		-1.0	1.0	-1.0	72.0	0.0333333333333	0.1333333333333	0.0666666666667	288.40323996543884	
4	127.57452392578125	response	0	r		-1.0	1.0	-1.0	72.0	0.0333333333333	0.1333333333333	0.0666666666667	288.7448818683624	
4	128.83278799057007	pulse	0	t		-1.0	1.0	-1.0	72.0	0.0333333333333	0.1333333333333	0.0666666666667	290.00314593315125	
5	128.8576579093933	stim	0		0	0.16666667	0.0666666666667	90.0	88.0	0.0333333333333	0.1333333333333	0.0666666666667	290.0280158519745	23.991583108901978
5	130.42876601219177	pulse	0	t		0.16666667	0.0666666666667	90.0	88.0	0.0333333333333	0.1333333333333	0.0666666666667	291.59912395477295	
5	132.02861905097961	pulse	0	t		0.16666667	0.0666666666667	90.0	88.0	0.0333333333333	0.1333333333333	0.0666666666667	293.1989769935608	
5	133.62872505187988	pulse	0	t		0.16666667	0.0666666666667	90.0	88.0	0.0333333333333	0.1333333333333	0.0666666666667	294.79908299446106	
5	135.2285099029541	pulse	0	t		0.16666667	0.0666666666667	90.0	88.0	0.0333333333333	0.1333333333333	0.0666666666667	296.3988678455353	
5	135.5003719329834	response	0	r		0.16666667	0.0666666666667	90.0	88.0	0.0333333333333	0.1333333333333	0.0666666666667	296.6707298755646	
5	136.82845282554626	pulse	0	t		0.16666667	0.0666666666667	90.0	88.0	0.0333333333333	0.1333333333333	0.0666666666667	297.99881076812744	
5	138.42843389511108	pulse	0	t		0.16666667	0.0666666666667	90.0	88.0	0.0333333333333	0.1333333333333	0.0666666666667	299.59879183769226	
5	140.028235912323	pulse	0	t		0.16666667	0.0666666666667	90.0	88.0	0.0333333333333	0.1333333333333	0.0666666666667	301.1985938549042	
5	141.6281499862671	pulse	0	t		0.16666667	0.0666666666667	90.0	88.0	0.0333333333333	0.1333333333333	0.0666666666667	302.79850792884827	
5	142.45109486579895	response	0	r		0.16666667	0.0666666666667	90.0	88.0	0.0333333333333	0.1333333333333	0.0666666666667	303.6214528083801	
5	143.22908997535706	pulse	0	t		0.16666667	0.0666666666667	90.0	88.0	0.0333333333333	0.1333333333333	0.0666666666667	304.39944791793823	
5	144.8289978504181	pulse	0	t		0.16666667	0.0666666666667	90.0	88.0	0.0333333333333	0.1333333333333	0.0666666666667	305.99935579299927	
5	145.3121259212494	response	0	r		0.16666667	0.0666666666667	90.0	88.0	0.0333333333333	0.1333333333333	0.0666666666667	306.48248386383057	
5	146.4288809299469	pulse	0	t		0.16666667	0.0666666666667	90.0	88.0	0.0333333333333	0.1333333333333	0.0666666666667	307.5992388725281	
5	148.02869987487793	pulse	0	t		0.16666667	0.0666666666667	90.0	88.0	0.0333333333333	0.1333333333333	0.0666666666667	309.1990578174591	
5	149.6286358833313	pulse	0	t		0.16666667	0.0666666666667	90.0	88.0	0.0333333333333	0.1333333333333	0.0666666666667	310.7989938259125	
5	149.807541847229	response	0	r		0.16666667	0.0666666666667	90.0	88.0	0.0333333333333	0.1333333333333	0.0666666666667	310.9778997898102	
5	151.22845101356506	pulse	0	t		0.16666667	0.0666666666667	90.0	88.0	0.0333333333333	0.1333333333333	0.0666666666667	312.39880895614624	
5	152.82841086387634	pulse	0	t		0.16666667	0.0666666666667	90.0	88.0	0.0333333333333	0.1333333333333	0.0666666666667	313.9987688064575	
6	152.8492410182953	stim	0		0	0.16666667	0.0666666666667	180.0	112.0	0.0333333333333	0.1333333333333	0.0666666666667	314.01959896087646	24.008258819580078
6	153.46036195755005	response	0	r		0.16666667	0.0666666666667	180.0	112.0	0.0333333333333	0.1333333333333	0.0666666666667	314.6307199001312	
6	154.42824292182922	pulse	0	t		0.16666667	0.0666666666667	180.0	112.0	0.0333333333333	0.1333333333333	0.0666666666667	315.5986008644104	
6	155.6932098865509	response	0	r		0.16666667	0.0666666666667	180.0	112.0	0.0333333333333	0.1333333333333	0.0666666666667	316.8635678291321	
6	156.02814197540283	pulse	0	t		0.16666667	0.0666666666667	180.0	112.0	0.0333333333333	0.1333333333333	0.0666666666667	317.198499917984	
6	157.62809300422668	pulse	0	t		0.16666667	0.0666666666667	180.0	112.0	0.0333333333333	0.1333333333333	0.0666666666667	318.79845094680786	
6	159.22898292541504	pulse	0	t		0.16666667	0.0666666666667	180.0	112.0	0.0333333333333	0.1333333333333	0.0666666666667	320.3993408679962	
6	159.3268518447876	response	0	r		0.16666667	0.0666666666667	180.0	112.0	0.0333333333333	0.1333333333333	0.0666666666667	320.4972097873688	
6	160.82884883880615	pulse	0	t		0.16666667	0.0666666666667	180.0	112.0	0.0333333333333	0.1333333333333	0.0666666666667	321.99920678138733	
6	162.41574501991272	response	0	r		0.16666667	0.0666666666667	180.0	112.0	0.0333333333333	0.1333333333333	0.0666666666667	323.5861029624939	
6	162.42854189872742	pulse	0	t		0.16666667	0.0666666666667	180.0	112.0	0.0333333333333	0.1333333333333	0.0666666666667	323.5988998413086	
6	164.02865386009216	pulse	0	t		0.16666667	0.0666666666667	180.0	112.0	0.0333333333333	0.1333333333333	0.0666666666667	325.19901180267334	
6	165.62866401672363	pulse	0	t		0.16666667	0.0666666666667	180.0	112.0	0.0333333333333	0.1333333333333	0.0666666666667	326.7990219593048	
6	166.70350790023804	response	0	r		0.16666667	0.0666666666667	180.0	112.0	0.0333333333333	0.1333333333333	0.0666666666667	327.8738658428192	
6	167.22843194007874	pulse	0	t		0.16666667	0.0666666666667	180.0	112.0	0.0333333333333	0.1333333333333	0.0666666666667	328.3987898826599	
6	168.82843899726868	pulse	0	t		0.16666667	0.0666666666667	180.0	112.0	0.0333333333333	0.1333333333333	0.0666666666667	329.99879693984985	
6	168.89923882484436	response	0	r		0.16666667	0.0666666666667	180.0	112.0	0.0333333333333	0.1333333333333	0.0666666666667	330.06959676742554	
6	170.42831087112427	pulse	0	t		0.16666667	0.0666666666667	180.0	112.0	0.0333333333333	0.1333333333333	0.0666666666667	331.59866881370544	
6	172.0281970500946	pulse	0	t		0.16666667	0.0666666666667	180.0	112.0	0.0333333333333	0.1333333333333	0.0666666666667	333.1985549926758	
6	173.6281168460846	pulse	0	t		0.16666667	0.0666666666667	180.0	112.0	0.0333333333333	0.1333333333333	0.0666666666667	334.79847478866577	
6	173.84542202949524	response	0	r		0.16666667	0.0666666666667	180.0	112.0	0.0333333333333	0.1333333333333	0.0666666666667	335.0157799720764	
6	175.22900485992432	pulse	0	t		0.16666667	0.0666666666667	180.0	112.0	0.0333333333333	0.1333333333333	0.0666666666667	336.3993628025055	
6	176.4939320087433	response	0	r		0.16666667	0.0666666666667	180.0	112.0	0.0333333333333	0.1333333333333	0.0666666666667	337.66428995132446	
6	176.82884788513184	pulse	0	t		0.16666667	0.0666666666667	180.0	112.0	0.0333333333333	0.1333333333333	0.0666666666667	337.999205827713	
7	176.85749983787537	stim	0		0	-1.0	1.0	-1.0	136.0	0.0333333333333	0.1333333333333	0.0666666666667	338.02785778045654	15.999881982803345
7	178.23255801200867	response	0	r		-1.0	1.0	-1.0	136.0	0.0333333333333	0.1333333333333	0.0666666666667	339.40291595458984	
7	178.4325349330902	pulse	0	t		-1.0	1.0	-1.0	136.0	0.0333333333333	0.1333333333333	0.0666666666667	339.6028928756714	
7	180.0326018333435	pulse	0	t		-1.0	1.0	-1.0	136.0	0.0333333333333	0.1333333333333	0.0666666666667	341.2029597759247	
7	181.63265991210938	pulse	0	t		-1.0	1.0	-1.0	136.0	0.0333333333333	0.1333333333333	0.0666666666667	342.80301785469055	
7	183.23261094093323	response	0	r		-1.0	1.0	-1.0	136.0	0.0333333333333	0.1333333333333	0.0666666666667	344.4029688835144	
7	183.23273587226868	pulse	0	t		-1.0	1.0	-1.0	136.0	0.0333333333333	0.1333333333333	0.0666666666667	344.40309381484985	
7	184.83260083198547	pulse	0	t		-1.0	1.0	-1.0	136.0	0.0333333333333	0.1333333333333	0.0666666666667	346.00295877456665	
7	186.43206787109375	pulse	0	t		-1.0	1.0	-1.0	136.0	0.0333333333333	0.1333333333333	0.0666666666667	347.6024258136749	
7	188.0321650505066	pulse	0	t		-1.0	1.0	-1.0	136.0	0.0333333333333	0.1333333333333	0.0666666666667	349.20252299308777	
7	189.3073148727417	response	0	r		-1.0	1.0	-1.0	136.0	0.0333333333333	0.1333333333333	0.0666666666667	350.4776728153229	
7	189.63236689567566	pulse	0	t		-1.0	1.0	-1.0	136.0	0.0333333333333	0.1333333333333	0.0666666666667	350.80272483825684	
7	191.23241591453552	pulse	0	t		-1.0	1.0	-1.0	136.0	0.0333333333333	0.1333333333333	0.0666666666667	352.4027738571167	
7	192.83250784873962	pulse	0	t		-1.0	1.0	-1.0	136.0	0.0333333333333	0.1333333333333	0.0666666666667	354.0028657913208	
8	192.8573818206787	stim	0		0	-1.0	1.0	-1.0	152.0	0.0333333333333	0.1333333333333	0.0666666666667	354.0277397632599	15.999887228012085
8	194.4326298236847	pulse	0	t		-1.0	1.0	-1.0	152.0	0.0333333333333	0.1333333333333	0.0666666666667	355.60298776626587	
8	196.03241395950317	pulse	0	t		-1.0	1.0	-1.0	152.0	0.0333333333333	0.1333333333333	0.0666666666667	357.20277190208435	
8	196.4824719429016	response	0	r		-1.0	1.0	-1.0	152.0	0.0333333333333	0.1333333333333	0.0666666666667	357.6528298854828	
8	197.63248491287231	pulse	0	t		-1.0	1.0	-1.0	152.0	0.0333333333333	0.1333333333333	0.0666666666667	358.8028428554535	
8	199.2324390411377	pulse	0	t		-1.0	1.0	-1.0	152.0	0.0333333333333	0.1333333333333	0.0666666666667	360.4027969837189	
8	200.8324339389801	pulse	0	t		-1.0	1.0	-1.0	152.0	0.0333333333333	0.1333333333333	0.0666666666667	362.0027918815613	
8	202.43236184120178	pulse	0	t		-1.0	1.0	-1.0	152.0	0.0333333333333	0.1333333333333	0.0666666666667	363.60271978378296	
8	204.03238201141357	pulse	0	t		-1.0	1.0	-1.0	152.0	0.0333333333333	0.1333333333333	0.0666666666667	365.20273995399475	
8	205.63243985176086	pulse	0	t		-1.0	1.0	-1.0	152.0	0.0333333333333	0.1333333333333	0.0666666666667	366.80279779434204	
8	205.7906789779663	response	0	r		-1.0	1.0	-1.0	152.0	0.0333333333333	0.1333333333333	0.0666666666667	366.9610369205475	
8	207.23236298561096	pulse	0	t		-1.0	1.0	-1.0	152.0	0.0333333333333	0.1333333333333	0.0666666666667	368.40272092819214	
8	208.83242082595825	pulse	0	t		-1.0	1.0	-1.0	152.0	0.0333333333333	0.1333333333333	0.0666666666667	370.00277876853943	
9	208.8572690486908	stim	0		0	0.16666667	0.0666666666667	180.0	168.0	0.0333333333333	0.1333333333333	0.0666666666667	370.027626991272	23.991570949554443
9	209.2489538192749	response	0	r		0.16666667	0.0666666666667	180.0	168.0	0.0333333333333	0.1333333333333	0.0666666666667	370.4193117618561	
9	210.42887091636658	pulse	0	t		0.16666667	0.0666666666667	180.0	168.0	0.0333333333333	0.1333333333333	0.0666666666667	371.59922885894775	
9	212.0287549495697	pulse	0	t		0.16666667	0.0666666666667	180.0	168.0	0.0333333333333	0.1333333333333	0.0666666666667	373.1991128921509	
9	212.0896120071411	response	0	r		0.16666667	0.0666666666667	180.0	168.0	0.0333333333333	0.1333333333333	0.0666666666667	373.2599699497223	
9	213.6286759376526	pulse	0	t		0.16666667	0.0666666666667	180.0	168.0	0.0333333333333	0.1333333333333	0.0666666666667	374.79903388023376	
9	214.6490409374237	response	0	r		0.16666667	0.0666666666667	180.0	168.0	0.0333333333333	0.1333333333333	0.0666666666667	375.8193988800049	
9	215.22853994369507	pulse	0	t		0.16666667	0.0666666666667	180.0	168.0	0.0333333333333	0.1333333333333	0.0666666666667	376.39889788627625	
9	216.82854890823364	pulse	0	t		0.16666667	0.0666666666667	180.0	168.0	0.0333333333333	0.1333333333333	0.0666666666667	377.9989068508148	
9	216.92323899269104	response	0	r		0.16666667	0.0666666666667	180.0	168.0	0.0333333333333	0.1333333333333	0.0666666666667	378.0935969352722	
9	218.42832493782043	pulse	0	t		0.16666667	0.0666666666667	180.0	168.0	0.0333333333333	0.1333333333333	0.0666666666667	379.5986828804016	
9	219.22624492645264	response	0	r		0.16666667	0.0666666666667	180.0	168.0	0.0333333333333	0.1333333333333	0.0666666666667	380.3966028690338	
9	220.02824091911316	pulse	0	t		0.16666667	0.0666666666667	180.0	168.0	0.0333333333333	0.1333333333333	0.0666666666667	381.19859886169434	
9	221.628103017807	pulse	0	t		0.16666667	0.0666666666667	180.0	168.0	0.0333333333333	0.1333333333333	0.0666666666667	382.7984609603882	
9	222.12715888023376	response	0	r		0.16666667	0.0666666666667	180.0	168.0	0.0333333333333	0.1333333333333	0.0666666666667	383.29751682281494	
9	223.22910284996033	pulse	0	t		0.16666667	0.0666666666667	180.0	168.0	0.0333333333333	0.1333333333333	0.0666666666667	384.3994607925415	
9	224.8290069103241	pulse	0	t		0.16666667	0.0666666666667	180.0	168.0	0.0333333333333	0.1333333333333	0.0666666666667	385.9993648529053	
9	226.42889189720154	pulse	0	t		0.16666667	0.0666666666667	180.0	168.0	0.0333333333333	0.1333333333333	0.0666666666667	387.5992498397827	
9	228.02881288528442	pulse	0	t		0.16666667	0.0666666666667	180.0	168.0	0.0333333333333	0.1333333333333	0.0666666666667	389.1991708278656	
9	228.67272186279297	response	0	r		0.16666667	0.0666666666667	180.0	168.0	0.0333333333333	0.1333333333333	0.0666666666667	389.84307980537415	
9	229.6287088394165	pulse	0	t		0.16666667	0.0666666666667	180.0	168.0	0.0333333333333	0.1333333333333	0.0666666666667	390.7990667819977	
9	231.22864198684692	pulse	0	t		0.16666667	0.0666666666667	180.0	168.0	0.0333333333333	0.1333333333333	0.0666666666667	392.3989999294281	
9	232.82844495773315	pulse	0	t		0.16666667	0.0666666666667	180.0	168.0	0.0333333333333	0.1333333333333	0.0666666666667	393.99880290031433	
10	232.84883999824524	stim	0		0	0.16666667	0.0666666666667	90.0	192.0	0.0333333333333	0.1333333333333	0.0666666666667	394.0191979408264	23.999836921691895
10	234.42839789390564	pulse	0	t		0.16666667	0.0666666666667	90.0	192.0	0.0333333333333	0.1333333333333	0.0666666666667	395.5987558364868	
10	235.19831585884094	response	0	r		0.16666667	0.0666666666667	90.0	192.0	0.0333333333333	0.1333333333333	0.0666666666667	396.3686738014221	
10	236.02834105491638	pulse	0	t		0.16666667	0.0666666666667	90.0	192.0	0.0333333333333	0.1333333333333	0.0666666666667	397.19869899749756	
10	237.6282730102539	pulse	0	t		0.16666667	0.0666666666667	90.0	192.0	0.0333333333333	0.1333333333333	0.0666666666667	398.7986309528351	
10	238.167160987854	response	0	r		0.16666667	0.0666666666667	90.0	192.0	0.0333333333333	0.1333333333333	0.0666666666667	399.3375189304352	
10	239.2291648387909	pulse	0	t		0.16666667	0.0666666666667	90.0	192.0	0.0333333333333	0.1333333333333	0.0666666666667	400.39952278137207	
10	240.82906889915466	pulse	0	t		0.16666667	0.0666666666667	90.0	192.0	0.0333333333333	0.1333333333333	0.0666666666667	401.99942684173584	
10	242.2869508266449	response	0	r		0.16666667	0.0666666666667	90.0	192.0	0.0333333333333	0.1333333333333	0.0666666666667	403.4573087692261	
10	242.42873287200928	pulse	0	t		0.16666667	0.0666666666667	90.0	192.0	0.0333333333333	0.1333333333333	0.0666666666667	403.59909081459045	
10	244.0288360118866	pulse	0	t		0.16666667	0.0666666666667	90.0	192.0	0.0333333333333	0.1333333333333	0.0666666666667	405.1991939544678	
10	245.62874293327332	pulse	0	t		0.16666667	0.0666666666667	90.0	192.0	0.0333333333333	0.1333333333333	0.0666666666667	406.7991008758545	
10	247.22864603996277	pulse	0	t		0.16666667	0.0666666666667	90.0	192.0	0.0333333333333	0.1333333333333	0.0666666666667	408.39900398254395	
10	247.2494239807129	response	0	r		0.16666667	0.0666666666667	90.0	192.0	0.0333333333333	0.1333333333333	0.0666666666667	408.41978192329407	
10	248.82852292060852	pulse	0	t		0.16666667	0.0666666666667	90.0	192.0	0.0333333333333	0.1333333333333	0.0666666666667	409.9988808631897	
10	250.42847084999084	pulse	0	t		0.16666667	0.0666666666667	90.0	192.0	0.0333333333333	0.1333333333333	0.0666666666667	411.598828792572	
10	250.62835383415222	response	0	r		0.16666667	0.0666666666667	90.0	192.0	0.0333333333333	0.1333333333333	0.0666666666667	411.7987117767334	
10	252.0283179283142	pulse	0	t		0.16666667	0.0666666666667	90.0	192.0	0.0333333333333	0.1333333333333	0.0666666666667	413.1986758708954	
10	253.62831282615662	pulse	0	t		0.16666667	0.0666666666667	90.0	192.0	0.0333333333333	0.1333333333333	0.0666666666667	414.7986707687378	
10	254.7572329044342	response	0	r		0.16666667	0.0666666666667	90.0	192.0	0.0333333333333	0.1333333333333	0.0666666666667	415.9275908470154	
10	255.2291338443756	pulse	0	t		0.16666667	0.0666666666667	90.0	192.0	0.0333333333333	0.1333333333333	0.0666666666667	416.3994917869568	
10	256.82918882369995	pulse	0	t		0.16666667	0.0666666666667	90.0	192.0	0.0333333333333	0.1333333333333	0.0666666666667	417.9995467662811	
11	256.84867691993713	stim	0		0	-1.0	1.0	-1.0	216.0	0.0333333333333	0.1333333333333	0.0666666666667	418.0190348625183	16.008291006088257
11	257.825660943985	response	0	r		-1.0	1.0	-1.0	216.0	0.0333333333333	0.1333333333333	0.0666666666667	418.99601888656616	
11	258.4321758747101	pulse	0	t		-1.0	1.0	-1.0	216.0	0.0333333333333	0.1333333333333	0.0666666666667	419.60253381729126	
11	260.03213000297546	pulse	0	t		-1.0	1.0	-1.0	216.0	0.0333333333333	0.1333333333333	0.0666666666667	421.20248794555664	
11	260.40710401535034	response	0	r		-1.0	1.0	-1.0	216.0	0.0333333333333	0.1333333333333	0.0666666666667	421.5774619579315	
11	261.6320698261261	pulse	0	t		-1.0	1.0	-1.0	216.0	0.0333333333333	0.1333333333333	0.0666666666667	422.8024277687073	
11	263.00710582733154	response	0	r		-1.0	1.0	-1.0	216.0	0.0333333333333	0.1333333333333	0.0666666666667	424.1774637699127	
11	263.23212003707886	pulse	0	t		-1.0	1.0	-1.0	216.0	0.0333333333333	0.1333333333333	0.0666666666667	424.40247797966003	
11	264.8320620059967	pulse	0	t		-1.0	1.0	-1.0	216.0	0.0333333333333	0.1333333333333	0.0666666666667	426.0024199485779	
11	266.00706481933594	response	0	r		-1.0	1.0	-1.0	216.0	0.0333333333333	0.1333333333333	0.0666666666667	427.1774227619171	
11	266.43212890625	pulse	0	t		-1.0	1.0	-1.0	216.0	0.0333333333333	0.1333333333333	0.0666666666667	427.6024868488312	
11	268.03214502334595	pulse	0	t		-1.0	1.0	-1.0	216.0	0.0333333333333	0.1333333333333	0.0666666666667	429.2025029659271	
11	269.63210892677307	pulse	0	t		-1.0	1.0	-1.0	216.0	0.0333333333333	0.1333333333333	0.0666666666667	430.80246686935425	
11	271.23215198516846	pulse	0	t		-1.0	1.0	-1.0	216.0	0.0333333333333	0.1333333333333	0.0666666666667	432.40250992774963	
11	272.2089970111847	response	0	r		-1.0	1.0	-1.0	216.0	0.0333333333333	0.1333333333333	0.0666666666667	433.37935495376587	
11	272.83212900161743	pulse	0	t		-1.0	1.0	-1.0	216.0	0.0333333333333	0.1333333333333	0.0666666666667	434.0024869441986	
12	272.8569679260254	stim	0		0	0.16666667	0.0666666666667	0.0	232.0	0.0333333333333	0.1333333333333	0.0666666666667	434.02732586860657	23.99153995513916
12	274.42898297309875	pulse	0	t		0.16666667	0.0666666666667	0.0	232.0	0.0333333333333	0.1333333333333	0.0666666666667	435.59934091567993	
12	275.7598190307617	response	0	r		0.16666667	0.0666666666667	0.0	232.0	0.0333333333333	0.1333333333333	0.0666666666667	436.9301769733429	
12	276.02880597114563	pulse	0	t		0.16666667	0.0666666666667	0.0	232.0	0.0333333333333	0.1333333333333	0.0666666666667	437.1991639137268	
12	277.6287410259247	pulse	0	t		0.16666667	0.0666666666667	0.0	232.0	0.0333333333333	0.1333333333333	0.0666666666667	438.79909896850586	
12	279.11544585227966	response	0	r		0.16666667	0.0666666666667	0.0	232.0	0.0333333333333	0.1333333333333	0.0666666666667	440.28580379486084	
12	279.22857904434204	pulse	0	t		0.16666667	0.0666666666667	0.0	232.0	0.0333333333333	0.1333333333333	0.0666666666667	440.3989369869232	
12	280.82858300209045	pulse	0	t		0.16666667	0.0666666666667	0.0	232.0	0.0333333333333	0.1333333333333	0.0666666666667	441.99894094467163	
12	281.04145789146423	response	0	r		0.16666667	0.0666666666667	0.0	232.0	0.0333333333333	0.1333333333333	0.0666666666667	442.2118158340454	
12	282.42845702171326	pulse	0	t		0.16666667	0.0666666666667	0.0	232.0	0.0333333333333	0.1333333333333	0.0666666666667	443.59881496429443	
12	284.0283739566803	pulse	0	t		0.16666667	0.0666666666667	0.0	232.0	0.0333333333333	0.1333333333333	0.0666666666667	445.1987318992615	
12	284.4643428325653	response	0	r		0.16666667	0.0666666666667	0.0	232.0	0.0333333333333	0.1333333333333	0.0666666666667	445.6347007751465	
12	285.6283178329468	pulse	0	t		0.16666667	0.0666666666667	0.0	232.0	0.0333333333333	0.1333333333333	0.0666666666667	446.79867577552795	
12	287.22916197776794	pulse	0	t		0.16666667	0.0666666666667	0.0	232.0	0.0333333333333	0.1333333333333	0.0666666666667	448.3995199203491	
12	288.82909083366394	pulse	0	t		0.16666667	0.0666666666667	0.0	232.0	0.0333333333333	0.1333333333333	0.0666666666667	449.9994487762451	
12	290.4290199279785	pulse	0	t		0.16666667	0.0666666666667	0.0	232.0	0.0333333333333	0.1333333333333	0.0666666666667	451.5993778705597	
12	292.0289340019226	pulse	0	t		0.16666667	0.0666666666667	0.0	232.0	0.0333333333333	0.1333333333333	0.0666666666667	453.1992919445038	
12	293.62878799438477	pulse	0	t		0.16666667	0.0666666666667	0.0	232.0	0.0333333333333	0.1333333333333	0.0666666666667	454.79914593696594	
12	295.2286880016327	pulse	0	t		0.16666667	0.0666666666667	0.0	232.0	0.0333333333333	0.1333333333333	0.0666666666667	456.39904594421387	
12	296.8015739917755	response	0	r		0.16666667	0.0666666666667	0.0	232.0	0.0333333333333	0.1333333333333	0.0666666666667	457.9719319343567	
12	296.82839798927307	pulse	0	t		0.16666667	0.0666666666667	0.0	232.0	0.0333333333333	0.1333333333333	0.0666666666667	457.99875593185425	
13	296.84850788116455	stim	0		0	0.16666667	0.0666666666667	270.0	256.0	0.0333333333333	0.1333333333333	0.0666666666667	458.0188658237457	23.99997115135193
13	298.42848801612854	pulse	0	t		0.16666667	0.0666666666667	270.0	256.0	0.0333333333333	0.1333333333333	0.0666666666667	459.5988459587097	
13	299.23748898506165	response	0	r		0.16666667	0.0666666666667	270.0	256.0	0.0333333333333	0.1333333333333	0.0666666666667	460.4078469276428	
13	300.0283830165863	pulse	0	t		0.16666667	0.0666666666667	270.0	256.0	0.0333333333333	0.1333333333333	0.0666666666667	461.1987409591675	
13	301.6283218860626	pulse	0	t		0.16666667	0.0666666666667	270.0	256.0	0.0333333333333	0.1333333333333	0.0666666666667	462.7986798286438	
13	303.2291989326477	pulse	0	t		0.16666667	0.0666666666667	270.0	256.0	0.0333333333333	0.1333333333333	0.0666666666667	464.3995568752289	
13	304.8291120529175	pulse	0	t		0.16666667	0.0666666666667	270.0	256.0	0.0333333333333	0.1333333333333	0.0666666666667	465.99946999549866	
13	306.4290659427643	pulse	0	t		0.16666667	0.0666666666667	270.0	256.0	0.0333333333333	0.1333333333333	0.0666666666667	467.59942388534546	
13	308.0289189815521	pulse	0	t		0.16666667	0.0666666666667	270.0	256.0	0.0333333333333	0.1333333333333	0.0666666666667	469.1992769241333	
13	309.6289699077606	pulse	0	t		0.16666667	0.0666666666667	270.0	256.0	0.0333333333333	0.1333333333333	0.0666666666667	470.7993278503418	
13	310.1477270126343	response	0	r		0.16666667	0.0666666666667	270.0	256.0	0.0333333333333	0.1333333333333	0.0666666666667	471.31808495521545	
13	311.2286899089813	pulse	0	t		0.16666667	0.0666666666667	270.0	256.0	0.0333333333333	0.1333333333333	0.0666666666667	472.3990478515625	
13	312.5967628955841	response	0	r		0.16666667	0.0666666666667	270.0	256.0	0.0333333333333	0.1333333333333	0.0666666666667	473.7671208381653	
13	312.8284809589386	pulse	0	t		0.16666667	0.0666666666667	270.0	256.0	0.0333333333333	0.1333333333333	0.0666666666667	473.9988389015198	
13	314.4285538196564	pulse	0	t		0.16666667	0.0666666666667	270.0	256.0	0.0333333333333	0.1333333333333	0.0666666666667	475.59891176223755	
13	315.4964339733124	response	0	r		0.16666667	0.0666666666667	270.0	256.0	0.0333333333333	0.1333333333333	0.0666666666667	476.66679191589355	
13	316.02843403816223	pulse	0	t		0.16666667	0.0666666666667	270.0	256.0	0.0333333333333	0.1333333333333	0.0666666666667	477.1987919807434	
13	317.6283140182495	pulse	0	t		0.16666667	0.0666666666667	270.0	256.0	0.0333333333333	0.1333333333333	0.0666666666667	478.7986719608307	
13	317.72615694999695	response	0	r		0.16666667	0.0666666666667	270.0	256.0	0.0333333333333	0.1333333333333	0.0666666666667	478.8965148925781	
13	319.22922801971436	pulse	0	t		0.16666667	0.0666666666667	270.0	256.0	0.0333333333333	0.1333333333333	0.0666666666667	480.39958596229553	
13	320.8292019367218	pulse	0	t		0.16666667	0.0666666666667	270.0	256.0	0.0333333333333	0.1333333333333	0.0666666666667	481.999559879303	
14	320.8484790325165	stim	0		0								482.01883697509766	24.35812783241272
14	322.43193101882935	pulse	0	t									483.6022889614105	
14	324.03193187713623	pulse	0	t									485.2022898197174	
14	325.63181495666504	pulse	0	t									486.8021728992462	
14	327.23182582855225	pulse	0	t									488.4021837711334	
14	328.8318510055542	pulse	0	t									490.0022089481354	
14	330.4319598674774	pulse	0	t									491.6023178100586	
14	332.0317668914795	pulse	0	t									493.20212483406067	
14	333.63180589675903	pulse	0	t									494.8021638393402	
14	335.23177194595337	pulse	0	t									496.40212988853455	
14	336.83172082901	pulse	0	t									498.0020787715912	
14	338.4318528175354	pulse	0	t									499.6022107601166	
14	340.03174901008606	pulse	0	t									501.20210695266724	
14	341.63176584243774	pulse	0	t									502.8021237850189	
14	343.2317898273468	pulse	0	t									504.402147769928	
14	344.8318090438843	pulse	0	t									506.00216698646545	
