trial_nr	onset	event_type	phase	response	nr_frames	bar_width	bar_refresh_time	bar_direction	start_time	bar_blank_duration	bar_blank_interval	bg_stim_refresh_time	onset_abs	duration
0	0.18330097198486328	stim	0		0								10.92608904838562	0.34160304069519043
0	0.5168850421905518	response	0	space									11.259673118591309	
1	0.5249040126800537	stim	0		0								11.26769208908081	29.965880155563354
1	30.47079300880432	pulse	0	t									41.21358108520508	
1	30.490784168243408	stim	1		0								41.233572244644165	0.000823974609375
1	30.491608142852783	stim	0		0								41.23439621925354	23.999684810638428
1	32.06314396858215	pulse	0	t									42.80593204498291	
1	33.09845495223999	response	0	b									43.84124302864075	
1	33.66331911087036	pulse	0	t									44.40610718727112	
1	35.263713121414185	pulse	0	t									46.00650119781494	
1	36.863943099975586	pulse	0	t									47.60673117637634	
1	38.4640531539917	pulse	0	t									49.206841230392456	
1	38.63905215263367	response	0	b									49.381840229034424	
1	40.06439208984375	pulse	0	t									50.80718016624451	
1	40.68110013008118	response	0	b									51.423888206481934	
1	41.664613008499146	pulse	0	t									52.4074010848999	
1	43.26482701301575	pulse	0	t									54.007615089416504	
1	44.86504101753235	pulse	0	t									55.607829093933105	
1	45.68353295326233	response	0	b									56.426321029663086	
1	46.46526002883911	pulse	0	t									57.20804810523987	
1	48.06545615196228	pulse	0	t									58.80824422836304	
1	48.1738600730896	response	0	b									58.916648149490356	
1	49.66584801673889	pulse	0	t									60.40863609313965	
1	50.40749502182007	response	0	b									61.150283098220825	
1	51.265953063964844	pulse	0	t									62.0087411403656	
1	52.86622214317322	pulse	0	t									63.609010219573975	
1	54.466389179229736	pulse	0	t									65.2091772556305	
2	54.49129295349121	stim	0		0	0.16666667	0.0666666666667	270.0	24.0	0.0333333333333	0.1333333333333	0.0666666666667	65.23408102989197	23.995259046554565
2	55.9365119934082	response	0	b		0.16666667	0.0666666666667	270.0	24.0	0.0333333333333	0.1333333333333	0.0666666666667	66.67930006980896	
2	56.06038212776184	pulse	0	t		0.16666667	0.0666666666667	270.0	24.0	0.0333333333333	0.1333333333333	0.0666666666667	66.8031702041626	
2	57.66048312187195	pulse	0	t		0.16666667	0.0666666666667	270.0	24.0	0.0333333333333	0.1333333333333	0.0666666666667	68.4032711982727	
2	59.26051211357117	pulse	0	t		0.16666667	0.0666666666667	270.0	24.0	0.0333333333333	0.1333333333333	0.0666666666667	70.00330018997192	
2	59.47840213775635	response	0	b		0.16666667	0.0666666666667	270.0	24.0	0.0333333333333	0.1333333333333	0.0666666666667	70.2211902141571	
2	60.86055111885071	pulse	0	t		0.16666667	0.0666666666667	270.0	24.0	0.0333333333333	0.1333333333333	0.0666666666667	71.60333919525146	
2	61.458489179611206	response	0	b		0.16666667	0.0666666666667	270.0	24.0	0.0333333333333	0.1333333333333	0.0666666666667	72.20127725601196	
2	62.46051502227783	pulse	0	t		0.16666667	0.0666666666667	270.0	24.0	0.0333333333333	0.1333333333333	0.0666666666667	73.20330309867859	
2	64.0605480670929	pulse	0	t		0.16666667	0.0666666666667	270.0	24.0	0.0333333333333	0.1333333333333	0.0666666666667	74.80333614349365	
2	65.66063499450684	pulse	0	t		0.16666667	0.0666666666667	270.0	24.0	0.0333333333333	0.1333333333333	0.0666666666667	76.40342307090759	
2	66.92062306404114	response	0	b		0.16666667	0.0666666666667	270.0	24.0	0.0333333333333	0.1333333333333	0.0666666666667	77.6634111404419	
2	67.2605390548706	pulse	0	t		0.16666667	0.0666666666667	270.0	24.0	0.0333333333333	0.1333333333333	0.0666666666667	78.00332713127136	
2	68.86064004898071	pulse	0	t		0.16666667	0.0666666666667	270.0	24.0	0.0333333333333	0.1333333333333	0.0666666666667	79.60342812538147	
2	70.19368505477905	response	0	b		0.16666667	0.0666666666667	270.0	24.0	0.0333333333333	0.1333333333333	0.0666666666667	80.93647313117981	
2	70.4605450630188	pulse	0	t		0.16666667	0.0666666666667	270.0	24.0	0.0333333333333	0.1333333333333	0.0666666666667	81.20333313941956	
2	72.06065607070923	pulse	0	t		0.16666667	0.0666666666667	270.0	24.0	0.0333333333333	0.1333333333333	0.0666666666667	82.80344414710999	
2	73.65964317321777	pulse	0	t		0.16666667	0.0666666666667	270.0	24.0	0.0333333333333	0.1333333333333	0.0666666666667	84.40243124961853	
2	74.66971206665039	response	0	b		0.16666667	0.0666666666667	270.0	24.0	0.0333333333333	0.1333333333333	0.0666666666667	85.41250014305115	
2	75.26068115234375	pulse	0	t		0.16666667	0.0666666666667	270.0	24.0	0.0333333333333	0.1333333333333	0.0666666666667	86.0034692287445	
2	76.72376012802124	response	0	b		0.16666667	0.0666666666667	270.0	24.0	0.0333333333333	0.1333333333333	0.0666666666667	87.466548204422	
2	76.85960006713867	pulse	0	t		0.16666667	0.0666666666667	270.0	24.0	0.0333333333333	0.1333333333333	0.0666666666667	87.60238814353943	
2	78.45979499816895	pulse	0	t		0.16666667	0.0666666666667	270.0	24.0	0.0333333333333	0.1333333333333	0.0666666666667	89.2025830745697	
3	78.48655200004578	stim	0		0	0.16666667	0.0666666666667	0.0	48.0	0.0333333333333	0.1333333333333	0.0666666666667	89.22934007644653	24.00354814529419
3	80.05977296829224	pulse	0	t		0.16666667	0.0666666666667	0.0	48.0	0.0333333333333	0.1333333333333	0.0666666666667	90.802561044693	
3	81.65979313850403	pulse	0	t		0.16666667	0.0666666666667	0.0	48.0	0.0333333333333	0.1333333333333	0.0666666666667	92.40258121490479	
3	83.25976800918579	pulse	0	t		0.16666667	0.0666666666667	0.0	48.0	0.0333333333333	0.1333333333333	0.0666666666667	94.00255608558655	
3	84.85984301567078	pulse	0	t		0.16666667	0.0666666666667	0.0	48.0	0.0333333333333	0.1333333333333	0.0666666666667	95.60263109207153	
3	86.45986199378967	pulse	0	t		0.16666667	0.0666666666667	0.0	48.0	0.0333333333333	0.1333333333333	0.0666666666667	97.20265007019043	
3	88.05985999107361	pulse	0	t		0.16666667	0.0666666666667	0.0	48.0	0.0333333333333	0.1333333333333	0.0666666666667	98.80264806747437	
3	88.6238341331482	response	0	b		0.16666667	0.0666666666667	0.0	48.0	0.0333333333333	0.1333333333333	0.0666666666667	99.36662220954895	
3	89.6598641872406	pulse	0	t		0.16666667	0.0666666666667	0.0	48.0	0.0333333333333	0.1333333333333	0.0666666666667	100.40265226364136	
3	91.25990414619446	pulse	0	t		0.16666667	0.0666666666667	0.0	48.0	0.0333333333333	0.1333333333333	0.0666666666667	102.00269222259521	
3	92.40186810493469	response	0	b		0.16666667	0.0666666666667	0.0	48.0	0.0333333333333	0.1333333333333	0.0666666666667	103.14465618133545	
3	92.8598370552063	pulse	0	t		0.16666667	0.0666666666667	0.0	48.0	0.0333333333333	0.1333333333333	0.0666666666667	103.60262513160706	
3	94.4599289894104	pulse	0	t		0.16666667	0.0666666666667	0.0	48.0	0.0333333333333	0.1333333333333	0.0666666666667	105.20271706581116	
3	96.05997514724731	pulse	0	t		0.16666667	0.0666666666667	0.0	48.0	0.0333333333333	0.1333333333333	0.0666666666667	106.80276322364807	
3	96.09077596664429	response	0	b		0.16666667	0.0666666666667	0.0	48.0	0.0333333333333	0.1333333333333	0.0666666666667	106.83356404304504	
3	97.6599850654602	pulse	0	t		0.16666667	0.0666666666667	0.0	48.0	0.0333333333333	0.1333333333333	0.0666666666667	108.40277314186096	
3	98.81396317481995	response	0	b		0.16666667	0.0666666666667	0.0	48.0	0.0333333333333	0.1333333333333	0.0666666666667	109.5567512512207	
3	99.25994396209717	pulse	0	t		0.16666667	0.0666666666667	0.0	48.0	0.0333333333333	0.1333333333333	0.0666666666667	110.00273203849792	
3	100.860023021698	pulse	0	t		0.16666667	0.0666666666667	0.0	48.0	0.0333333333333	0.1333333333333	0.0666666666667	111.60281109809875	
3	102.46002411842346	pulse	0	t		0.16666667	0.0666666666667	0.0	48.0	0.0333333333333	0.1333333333333	0.0666666666667	113.20281219482422	
4	102.49010014533997	stim	0		0	-1.0	1.0	-1.0	72.0	0.0333333333333	0.1333333333333	0.0666666666667	113.23288822174072	16.002380847930908
4	104.06556415557861	pulse	0	t		-1.0	1.0	-1.0	72.0	0.0333333333333	0.1333333333333	0.0666666666667	114.80835223197937	
4	105.3240020275116	response	0	b		-1.0	1.0	-1.0	72.0	0.0333333333333	0.1333333333333	0.0666666666667	116.06679010391235	
4	105.66572713851929	pulse	0	t		-1.0	1.0	-1.0	72.0	0.0333333333333	0.1333333333333	0.0666666666667	116.40851521492004	
4	107.26596713066101	pulse	0	t		-1.0	1.0	-1.0	72.0	0.0333333333333	0.1333333333333	0.0666666666667	118.00875520706177	
4	108.86628007888794	pulse	0	t		-1.0	1.0	-1.0	72.0	0.0333333333333	0.1333333333333	0.0666666666667	119.6090681552887	
4	110.46650218963623	pulse	0	t		-1.0	1.0	-1.0	72.0	0.0333333333333	0.1333333333333	0.0666666666667	121.20929026603699	
4	112.0600471496582	pulse	0	t		-1.0	1.0	-1.0	72.0	0.0333333333333	0.1333333333333	0.0666666666667	122.80283522605896	
4	113.6603090763092	pulse	0	t		-1.0	1.0	-1.0	72.0	0.0333333333333	0.1333333333333	0.0666666666667	124.40309715270996	
4	114.91871404647827	response	0	b		-1.0	1.0	-1.0	72.0	0.0333333333333	0.1333333333333	0.0666666666667	125.66150212287903	
4	115.2606589794159	pulse	0	t		-1.0	1.0	-1.0	72.0	0.0333333333333	0.1333333333333	0.0666666666667	126.00344705581665	
4	116.8607189655304	pulse	0	t		-1.0	1.0	-1.0	72.0	0.0333333333333	0.1333333333333	0.0666666666667	127.60350704193115	
4	118.15919017791748	response	0	b		-1.0	1.0	-1.0	72.0	0.0333333333333	0.1333333333333	0.0666666666667	128.90197825431824	
4	118.46106195449829	pulse	0	t		-1.0	1.0	-1.0	72.0	0.0333333333333	0.1333333333333	0.0666666666667	129.20385003089905	
5	118.49248099327087	stim	0		0	0.16666667	0.0666666666667	90.0	88.0	0.0333333333333	0.1333333333333	0.0666666666667	129.23526906967163	24.0035719871521
5	120.06039309501648	pulse	0	t		0.16666667	0.0666666666667	90.0	88.0	0.0333333333333	0.1333333333333	0.0666666666667	130.80318117141724	
5	121.66024899482727	pulse	0	t		0.16666667	0.0666666666667	90.0	88.0	0.0333333333333	0.1333333333333	0.0666666666667	132.40303707122803	
5	123.21237516403198	response	0	b		0.16666667	0.0666666666667	90.0	88.0	0.0333333333333	0.1333333333333	0.0666666666667	133.95516324043274	
5	123.26018595695496	pulse	0	t		0.16666667	0.0666666666667	90.0	88.0	0.0333333333333	0.1333333333333	0.0666666666667	134.0029740333557	
5	124.86040115356445	pulse	0	t		0.16666667	0.0666666666667	90.0	88.0	0.0333333333333	0.1333333333333	0.0666666666667	135.6031892299652	
5	126.08547306060791	response	0	b		0.16666667	0.0666666666667	90.0	88.0	0.0333333333333	0.1333333333333	0.0666666666667	136.82826113700867	
5	126.46024298667908	pulse	0	t		0.16666667	0.0666666666667	90.0	88.0	0.0333333333333	0.1333333333333	0.0666666666667	137.20303106307983	
5	128.0603539943695	pulse	0	t		0.16666667	0.0666666666667	90.0	88.0	0.0333333333333	0.1333333333333	0.0666666666667	138.80314207077026	
5	129.6604061126709	pulse	0	t		0.16666667	0.0666666666667	90.0	88.0	0.0333333333333	0.1333333333333	0.0666666666667	140.40319418907166	
5	130.5743601322174	response	0	b		0.16666667	0.0666666666667	90.0	88.0	0.0333333333333	0.1333333333333	0.0666666666667	141.31714820861816	
5	131.26040315628052	pulse	0	t		0.16666667	0.0666666666667	90.0	88.0	0.0333333333333	0.1333333333333	0.0666666666667	142.00319123268127	
5	131.80239295959473	response	0	b		0.16666667	0.0666666666667	90.0	88.0	0.0333333333333	0.1333333333333	0.0666666666667	142.54518103599548	
5	132.86038899421692	pulse	0	t		0.16666667	0.0666666666667	90.0	88.0	0.0333333333333	0.1333333333333	0.0666666666667	143.60317707061768	
5	134.46043300628662	pulse	0	t		0.16666667	0.0666666666667	90.0	88.0	0.0333333333333	0.1333333333333	0.0666666666667	145.20322108268738	
5	134.512216091156	response	0	b		0.16666667	0.0666666666667	90.0	88.0	0.0333333333333	0.1333333333333	0.0666666666667	145.25500416755676	
5	136.0604691505432	pulse	0	t		0.16666667	0.0666666666667	90.0	88.0	0.0333333333333	0.1333333333333	0.0666666666667	146.80325722694397	
5	136.82244396209717	response	0	b		0.16666667	0.0666666666667	90.0	88.0	0.0333333333333	0.1333333333333	0.0666666666667	147.56523203849792	
5	137.6605019569397	pulse	0	t		0.16666667	0.0666666666667	90.0	88.0	0.0333333333333	0.1333333333333	0.0666666666667	148.40329003334045	
5	139.260516166687	pulse	0	t		0.16666667	0.0666666666667	90.0	88.0	0.0333333333333	0.1333333333333	0.0666666666667	150.00330424308777	
5	139.36035895347595	response	0	b		0.16666667	0.0666666666667	90.0	88.0	0.0333333333333	0.1333333333333	0.0666666666667	150.1031470298767	
5	140.8604769706726	pulse	0	t		0.16666667	0.0666666666667	90.0	88.0	0.0333333333333	0.1333333333333	0.0666666666667	151.60326504707336	
5	141.6085181236267	response	0	b		0.16666667	0.0666666666667	90.0	88.0	0.0333333333333	0.1333333333333	0.0666666666667	152.35130620002747	
5	142.46046614646912	pulse	0	t		0.16666667	0.0666666666667	90.0	88.0	0.0333333333333	0.1333333333333	0.0666666666667	153.20325422286987	
6	142.49605298042297	stim	0		0	0.16666667	0.0666666666667	180.0	112.0	0.0333333333333	0.1333333333333	0.0666666666667	153.23884105682373	23.995267152786255
6	144.0605549812317	pulse	0	t		0.16666667	0.0666666666667	180.0	112.0	0.0333333333333	0.1333333333333	0.0666666666667	154.80334305763245	
6	145.6605851650238	pulse	0	t		0.16666667	0.0666666666667	180.0	112.0	0.0333333333333	0.1333333333333	0.0666666666667	156.40337324142456	
6	147.0375781059265	response	0	b		0.16666667	0.0666666666667	180.0	112.0	0.0333333333333	0.1333333333333	0.0666666666667	157.78036618232727	
6	147.26048517227173	pulse	0	t		0.16666667	0.0666666666667	180.0	112.0	0.0333333333333	0.1333333333333	0.0666666666667	158.00327324867249	
6	148.86061000823975	pulse	0	t		0.16666667	0.0666666666667	180.0	112.0	0.0333333333333	0.1333333333333	0.0666666666667	159.6033980846405	
6	150.46060299873352	pulse	0	t		0.16666667	0.0666666666667	180.0	112.0	0.0333333333333	0.1333333333333	0.0666666666667	161.20339107513428	
6	151.7756040096283	response	0	b		0.16666667	0.0666666666667	180.0	112.0	0.0333333333333	0.1333333333333	0.0666666666667	162.51839208602905	
6	152.06051516532898	pulse	0	t		0.16666667	0.0666666666667	180.0	112.0	0.0333333333333	0.1333333333333	0.0666666666667	162.80330324172974	
6	153.66066002845764	pulse	0	t		0.16666667	0.0666666666667	180.0	112.0	0.0333333333333	0.1333333333333	0.0666666666667	164.4034481048584	
6	155.26069116592407	pulse	0	t		0.16666667	0.0666666666667	180.0	112.0	0.0333333333333	0.1333333333333	0.0666666666667	166.00347924232483	
6	156.86076712608337	pulse	0	t		0.16666667	0.0666666666667	180.0	112.0	0.0333333333333	0.1333333333333	0.0666666666667	167.60355520248413	
6	158.46076011657715	pulse	0	t		0.16666667	0.0666666666667	180.0	112.0	0.0333333333333	0.1333333333333	0.0666666666667	169.2035481929779	
6	160.06078100204468	pulse	0	t		0.16666667	0.0666666666667	180.0	112.0	0.0333333333333	0.1333333333333	0.0666666666667	170.80356907844543	
6	161.07672715187073	response	0	b		0.16666667	0.0666666666667	180.0	112.0	0.0333333333333	0.1333333333333	0.0666666666667	171.81951522827148	
6	161.66071605682373	pulse	0	t		0.16666667	0.0666666666667	180.0	112.0	0.0333333333333	0.1333333333333	0.0666666666667	172.4035041332245	
6	163.2608151435852	pulse	0	t		0.16666667	0.0666666666667	180.0	112.0	0.0333333333333	0.1333333333333	0.0666666666667	174.00360321998596	
6	164.50081205368042	response	0	b		0.16666667	0.0666666666667	180.0	112.0	0.0333333333333	0.1333333333333	0.0666666666667	175.24360013008118	
6	164.86071014404297	pulse	0	t		0.16666667	0.0666666666667	180.0	112.0	0.0333333333333	0.1333333333333	0.0666666666667	175.60349822044373	
6	166.4608190059662	pulse	0	t		0.16666667	0.0666666666667	180.0	112.0	0.0333333333333	0.1333333333333	0.0666666666667	177.20360708236694	
7	166.49132013320923	stim	0		0	-1.0	1.0	-1.0	136.0	0.0333333333333	0.1333333333333	0.0666666666667	177.23410820960999	16.002379894256592
7	168.06674313545227	pulse	0	t		-1.0	1.0	-1.0	136.0	0.0333333333333	0.1333333333333	0.0666666666667	178.80953121185303	
7	169.66701102256775	pulse	0	t		-1.0	1.0	-1.0	136.0	0.0333333333333	0.1333333333333	0.0666666666667	180.4097990989685	
7	171.260516166687	pulse	0	t		-1.0	1.0	-1.0	136.0	0.0333333333333	0.1333333333333	0.0666666666667	182.00330424308777	
7	172.30068111419678	response	0	b		-1.0	1.0	-1.0	136.0	0.0333333333333	0.1333333333333	0.0666666666667	183.04346919059753	
7	172.86097407341003	pulse	0	t		-1.0	1.0	-1.0	136.0	0.0333333333333	0.1333333333333	0.0666666666667	183.6037621498108	
7	174.4612729549408	pulse	0	t		-1.0	1.0	-1.0	136.0	0.0333333333333	0.1333333333333	0.0666666666667	185.20406103134155	
7	175.70953512191772	response	0	b		-1.0	1.0	-1.0	136.0	0.0333333333333	0.1333333333333	0.0666666666667	186.45232319831848	
7	176.06133913993835	pulse	0	t		-1.0	1.0	-1.0	136.0	0.0333333333333	0.1333333333333	0.0666666666667	186.8041272163391	
7	177.66157412528992	pulse	0	t		-1.0	1.0	-1.0	136.0	0.0333333333333	0.1333333333333	0.0666666666667	188.40436220169067	
7	179.25993013381958	pulse	0	t		-1.0	1.0	-1.0	136.0	0.0333333333333	0.1333333333333	0.0666666666667	190.00271821022034	
7	180.8601779937744	pulse	0	t		-1.0	1.0	-1.0	136.0	0.0333333333333	0.1333333333333	0.0666666666667	191.60296607017517	
7	182.46046900749207	pulse	0	t		-1.0	1.0	-1.0	136.0	0.0333333333333	0.1333333333333	0.0666666666667	193.20325708389282	
8	182.49370002746582	stim	0		0	-1.0	1.0	-1.0	152.0	0.0333333333333	0.1333333333333	0.0666666666667	193.23648810386658	16.002355098724365
8	184.0608160495758	pulse	0	t		-1.0	1.0	-1.0	152.0	0.0333333333333	0.1333333333333	0.0666666666667	194.80360412597656	
8	185.37943410873413	response	0	b		-1.0	1.0	-1.0	152.0	0.0333333333333	0.1333333333333	0.0666666666667	196.1222221851349	
8	185.66091108322144	pulse	0	t		-1.0	1.0	-1.0	152.0	0.0333333333333	0.1333333333333	0.0666666666667	196.4036991596222	
8	187.26122117042542	pulse	0	t		-1.0	1.0	-1.0	152.0	0.0333333333333	0.1333333333333	0.0666666666667	198.00400924682617	
8	188.8614640235901	pulse	0	t		-1.0	1.0	-1.0	152.0	0.0333333333333	0.1333333333333	0.0666666666667	199.60425209999084	
8	190.0950071811676	response	0	b		-1.0	1.0	-1.0	152.0	0.0333333333333	0.1333333333333	0.0666666666667	200.83779525756836	
8	190.46171712875366	pulse	0	t		-1.0	1.0	-1.0	152.0	0.0333333333333	0.1333333333333	0.0666666666667	201.20450520515442	
8	192.06193804740906	pulse	0	t		-1.0	1.0	-1.0	152.0	0.0333333333333	0.1333333333333	0.0666666666667	202.80472612380981	
8	192.13046312332153	response	0	b		-1.0	1.0	-1.0	152.0	0.0333333333333	0.1333333333333	0.0666666666667	202.8732511997223	
8	193.66211009025574	pulse	0	t		-1.0	1.0	-1.0	152.0	0.0333333333333	0.1333333333333	0.0666666666667	204.4048981666565	
8	195.2624490261078	pulse	0	t		-1.0	1.0	-1.0	152.0	0.0333333333333	0.1333333333333	0.0666666666667	206.00523710250854	
8	196.86260604858398	pulse	0	t		-1.0	1.0	-1.0	152.0	0.0333333333333	0.1333333333333	0.0666666666667	207.60539412498474	
8	198.4629430770874	pulse	0	t		-1.0	1.0	-1.0	152.0	0.0333333333333	0.1333333333333	0.0666666666667	209.20573115348816	
9	198.49605512619019	stim	0		0	0.16666667	0.0666666666667	180.0	168.0	0.0333333333333	0.1333333333333	0.0666666666667	209.23884320259094	23.995471954345703
9	198.74310111999512	response	0	b		0.16666667	0.0666666666667	180.0	168.0	0.0333333333333	0.1333333333333	0.0666666666667	209.48588919639587	
9	200.06018614768982	pulse	0	t		0.16666667	0.0666666666667	180.0	168.0	0.0333333333333	0.1333333333333	0.0666666666667	210.80297422409058	
9	200.84116506576538	response	0	b		0.16666667	0.0666666666667	180.0	168.0	0.0333333333333	0.1333333333333	0.0666666666667	211.58395314216614	
9	201.66019105911255	pulse	0	t		0.16666667	0.0666666666667	180.0	168.0	0.0333333333333	0.1333333333333	0.0666666666667	212.4029791355133	
9	203.2602481842041	pulse	0	t		0.16666667	0.0666666666667	180.0	168.0	0.0333333333333	0.1333333333333	0.0666666666667	214.00303626060486	
9	204.86034107208252	pulse	0	t		0.16666667	0.0666666666667	180.0	168.0	0.0333333333333	0.1333333333333	0.0666666666667	215.60312914848328	
9	206.460303068161	pulse	0	t		0.16666667	0.0666666666667	180.0	168.0	0.0333333333333	0.1333333333333	0.0666666666667	217.20309114456177	
9	206.9212350845337	response	0	b		0.16666667	0.0666666666667	180.0	168.0	0.0333333333333	0.1333333333333	0.0666666666667	217.66402316093445	
9	208.06033611297607	pulse	0	t		0.16666667	0.0666666666667	180.0	168.0	0.0333333333333	0.1333333333333	0.0666666666667	218.80312418937683	
9	209.66031002998352	pulse	0	t		0.16666667	0.0666666666667	180.0	168.0	0.0333333333333	0.1333333333333	0.0666666666667	220.40309810638428	
9	211.26033115386963	pulse	0	t		0.16666667	0.0666666666667	180.0	168.0	0.0333333333333	0.1333333333333	0.0666666666667	222.00311923027039	
9	212.73134398460388	response	0	b		0.16666667	0.0666666666667	180.0	168.0	0.0333333333333	0.1333333333333	0.0666666666667	223.47413206100464	
9	212.86019611358643	pulse	0	t		0.16666667	0.0666666666667	180.0	168.0	0.0333333333333	0.1333333333333	0.0666666666667	223.60298418998718	
9	214.46042013168335	pulse	0	t		0.16666667	0.0666666666667	180.0	168.0	0.0333333333333	0.1333333333333	0.0666666666667	225.2032082080841	
9	215.53641510009766	response	0	b		0.16666667	0.0666666666667	180.0	168.0	0.0333333333333	0.1333333333333	0.0666666666667	226.2792031764984	
9	216.06036114692688	pulse	0	t		0.16666667	0.0666666666667	180.0	168.0	0.0333333333333	0.1333333333333	0.0666666666667	226.80314922332764	
9	217.6604449748993	pulse	0	t		0.16666667	0.0666666666667	180.0	168.0	0.0333333333333	0.1333333333333	0.0666666666667	228.40323305130005	
9	219.2604751586914	pulse	0	t		0.16666667	0.0666666666667	180.0	168.0	0.0333333333333	0.1333333333333	0.0666666666667	230.00326323509216	
9	220.86046504974365	pulse	0	t		0.16666667	0.0666666666667	180.0	168.0	0.0333333333333	0.1333333333333	0.0666666666667	231.6032531261444	
9	220.95104312896729	response	0	b		0.16666667	0.0666666666667	180.0	168.0	0.0333333333333	0.1333333333333	0.0666666666667	231.69383120536804	
9	222.46049213409424	pulse	0	t		0.16666667	0.0666666666667	180.0	168.0	0.0333333333333	0.1333333333333	0.0666666666667	233.203280210495	
10	222.4915270805359	stim	0		0	0.16666667	0.0666666666667	90.0	192.0	0.0333333333333	0.1333333333333	0.0666666666667	233.23431515693665	23.99506688117981
10	224.0605170726776	pulse	0	t		0.16666667	0.0666666666667	90.0	192.0	0.0333333333333	0.1333333333333	0.0666666666667	234.80330514907837	
10	224.07433104515076	response	0	b		0.16666667	0.0666666666667	90.0	192.0	0.0333333333333	0.1333333333333	0.0666666666667	234.8171191215515	
10	225.6605520248413	pulse	0	t		0.16666667	0.0666666666667	90.0	192.0	0.0333333333333	0.1333333333333	0.0666666666667	236.40334010124207	
10	227.26056218147278	pulse	0	t		0.16666667	0.0666666666667	90.0	192.0	0.0333333333333	0.1333333333333	0.0666666666667	238.00335025787354	
10	228.86058807373047	pulse	0	t		0.16666667	0.0666666666667	90.0	192.0	0.0333333333333	0.1333333333333	0.0666666666667	239.60337615013123	
10	229.52255511283875	response	0	b		0.16666667	0.0666666666667	90.0	192.0	0.0333333333333	0.1333333333333	0.0666666666667	240.2653431892395	
10	230.46055912971497	pulse	0	t		0.16666667	0.0666666666667	90.0	192.0	0.0333333333333	0.1333333333333	0.0666666666667	241.20334720611572	
10	231.80357098579407	response	0	b		0.16666667	0.0666666666667	90.0	192.0	0.0333333333333	0.1333333333333	0.0666666666667	242.54635906219482	
10	232.0605010986328	pulse	0	t		0.16666667	0.0666666666667	90.0	192.0	0.0333333333333	0.1333333333333	0.0666666666667	242.80328917503357	
10	233.6605739593506	pulse	0	t		0.16666667	0.0666666666667	90.0	192.0	0.0333333333333	0.1333333333333	0.0666666666667	244.40336203575134	
10	235.2606589794159	pulse	0	t		0.16666667	0.0666666666667	90.0	192.0	0.0333333333333	0.1333333333333	0.0666666666667	246.00344705581665	
10	236.29367113113403	response	0	b		0.16666667	0.0666666666667	90.0	192.0	0.0333333333333	0.1333333333333	0.0666666666667	247.0364592075348	
10	236.86059308052063	pulse	0	t		0.16666667	0.0666666666667	90.0	192.0	0.0333333333333	0.1333333333333	0.0666666666667	247.6033811569214	
10	238.46066808700562	pulse	0	t		0.16666667	0.0666666666667	90.0	192.0	0.0333333333333	0.1333333333333	0.0666666666667	249.20345616340637	
10	240.01374006271362	response	0	b		0.16666667	0.0666666666667	90.0	192.0	0.0333333333333	0.1333333333333	0.0666666666667	250.75652813911438	
10	240.06054210662842	pulse	0	t		0.16666667	0.0666666666667	90.0	192.0	0.0333333333333	0.1333333333333	0.0666666666667	250.80333018302917	
10	241.6607711315155	pulse	0	t		0.16666667	0.0666666666667	90.0	192.0	0.0333333333333	0.1333333333333	0.0666666666667	252.40355920791626	
10	242.05363416671753	response	0	b		0.16666667	0.0666666666667	90.0	192.0	0.0333333333333	0.1333333333333	0.0666666666667	252.7964222431183	
10	243.26072001457214	pulse	0	t		0.16666667	0.0666666666667	90.0	192.0	0.0333333333333	0.1333333333333	0.0666666666667	254.0035080909729	
10	244.17075514793396	response	0	b		0.16666667	0.0666666666667	90.0	192.0	0.0333333333333	0.1333333333333	0.0666666666667	254.91354322433472	
10	244.86070013046265	pulse	0	t		0.16666667	0.0666666666667	90.0	192.0	0.0333333333333	0.1333333333333	0.0666666666667	255.6034882068634	
10	246.46081495285034	pulse	0	t		0.16666667	0.0666666666667	90.0	192.0	0.0333333333333	0.1333333333333	0.0666666666667	257.2036030292511	
11	246.4865939617157	stim	0		0	-1.0	1.0	-1.0	216.0	0.0333333333333	0.1333333333333	0.0666666666667	257.22938203811646	16.00234317779541
11	248.0620801448822	pulse	0	t		-1.0	1.0	-1.0	216.0	0.0333333333333	0.1333333333333	0.0666666666667	258.80486822128296	
11	249.6621401309967	pulse	0	t		-1.0	1.0	-1.0	216.0	0.0333333333333	0.1333333333333	0.0666666666667	260.40492820739746	
11	251.26249504089355	pulse	0	t		-1.0	1.0	-1.0	216.0	0.0333333333333	0.1333333333333	0.0666666666667	262.0052831172943	
11	252.52924418449402	response	0	b		-1.0	1.0	-1.0	216.0	0.0333333333333	0.1333333333333	0.0666666666667	263.2720322608948	
11	252.86260604858398	pulse	0	t		-1.0	1.0	-1.0	216.0	0.0333333333333	0.1333333333333	0.0666666666667	263.60539412498474	
11	254.4630901813507	pulse	0	t		-1.0	1.0	-1.0	216.0	0.0333333333333	0.1333333333333	0.0666666666667	265.20587825775146	
11	254.63791799545288	response	0	b		-1.0	1.0	-1.0	216.0	0.0333333333333	0.1333333333333	0.0666666666667	265.38070607185364	
11	256.0631079673767	pulse	0	t		-1.0	1.0	-1.0	216.0	0.0333333333333	0.1333333333333	0.0666666666667	266.80589604377747	
11	257.2550129890442	response	0	b		-1.0	1.0	-1.0	216.0	0.0333333333333	0.1333333333333	0.0666666666667	267.99780106544495	
11	257.66340804100037	pulse	0	t		-1.0	1.0	-1.0	216.0	0.0333333333333	0.1333333333333	0.0666666666667	268.4061961174011	
11	259.263610124588	pulse	0	t		-1.0	1.0	-1.0	216.0	0.0333333333333	0.1333333333333	0.0666666666667	270.00639820098877	
11	260.3405261039734	response	0	b		-1.0	1.0	-1.0	216.0	0.0333333333333	0.1333333333333	0.0666666666667	271.08331418037415	
11	260.86382603645325	pulse	0	t		-1.0	1.0	-1.0	216.0	0.0333333333333	0.1333333333333	0.0666666666667	271.606614112854	
11	262.46409606933594	pulse	0	t		-1.0	1.0	-1.0	216.0	0.0333333333333	0.1333333333333	0.0666666666667	273.2068841457367	
12	262.4889371395111	stim	0		0	0.16666667	0.0666666666667	0.0	232.0	0.0333333333333	0.1333333333333	0.0666666666667	273.23172521591187	24.003660917282104
12	263.45298504829407	response	0	b		0.16666667	0.0666666666667	0.0	232.0	0.0333333333333	0.1333333333333	0.0666666666667	274.1957731246948	
12	264.05999517440796	pulse	0	t		0.16666667	0.0666666666667	0.0	232.0	0.0333333333333	0.1333333333333	0.0666666666667	274.8027832508087	
12	265.6600601673126	pulse	0	t		0.16666667	0.0666666666667	0.0	232.0	0.0333333333333	0.1333333333333	0.0666666666667	276.4028482437134	
12	267.2600541114807	pulse	0	t		0.16666667	0.0666666666667	0.0	232.0	0.0333333333333	0.1333333333333	0.0666666666667	278.00284218788147	
12	268.41401195526123	response	0	b		0.16666667	0.0666666666667	0.0	232.0	0.0333333333333	0.1333333333333	0.0666666666667	279.156800031662	
12	268.8600239753723	pulse	0	t		0.16666667	0.0666666666667	0.0	232.0	0.0333333333333	0.1333333333333	0.0666666666667	279.60281205177307	
12	270.3620619773865	response	0	b		0.16666667	0.0666666666667	0.0	232.0	0.0333333333333	0.1333333333333	0.0666666666667	281.10485005378723	
12	270.45994305610657	pulse	0	t		0.16666667	0.0666666666667	0.0	232.0	0.0333333333333	0.1333333333333	0.0666666666667	281.2027311325073	
12	272.0602111816406	pulse	0	t		0.16666667	0.0666666666667	0.0	232.0	0.0333333333333	0.1333333333333	0.0666666666667	282.8029992580414	
12	273.66011905670166	pulse	0	t		0.16666667	0.0666666666667	0.0	232.0	0.0333333333333	0.1333333333333	0.0666666666667	284.4029071331024	
12	275.2601161003113	pulse	0	t		0.16666667	0.0666666666667	0.0	232.0	0.0333333333333	0.1333333333333	0.0666666666667	286.00290417671204	
12	276.86014103889465	pulse	0	t		0.16666667	0.0666666666667	0.0	232.0	0.0333333333333	0.1333333333333	0.0666666666667	287.6029291152954	
12	278.46019411087036	pulse	0	t		0.16666667	0.0666666666667	0.0	232.0	0.0333333333333	0.1333333333333	0.0666666666667	289.2029821872711	
12	280.06024408340454	pulse	0	t		0.16666667	0.0666666666667	0.0	232.0	0.0333333333333	0.1333333333333	0.0666666666667	290.8030321598053	
12	281.66033601760864	pulse	0	t		0.16666667	0.0666666666667	0.0	232.0	0.0333333333333	0.1333333333333	0.0666666666667	292.4031240940094	
12	282.00119614601135	response	0	b		0.16666667	0.0666666666667	0.0	232.0	0.0333333333333	0.1333333333333	0.0666666666667	292.7439842224121	
12	283.26023602485657	pulse	0	t		0.16666667	0.0666666666667	0.0	232.0	0.0333333333333	0.1333333333333	0.0666666666667	294.0030241012573	
12	283.5111150741577	response	0	b		0.16666667	0.0666666666667	0.0	232.0	0.0333333333333	0.1333333333333	0.0666666666667	294.2539031505585	
12	284.860249042511	pulse	0	t		0.16666667	0.0666666666667	0.0	232.0	0.0333333333333	0.1333333333333	0.0666666666667	295.60303711891174	
12	285.40621995925903	response	0	b		0.16666667	0.0666666666667	0.0	232.0	0.0333333333333	0.1333333333333	0.0666666666667	296.1490080356598	
12	286.460244178772	pulse	0	t		0.16666667	0.0666666666667	0.0	232.0	0.0333333333333	0.1333333333333	0.0666666666667	297.20303225517273	
13	286.4925980567932	stim	0		0	0.16666667	0.0666666666667	270.0	256.0	0.0333333333333	0.1333333333333	0.0666666666667	297.23538613319397	23.995254039764404
13	288.06041502952576	pulse	0	t		0.16666667	0.0666666666667	270.0	256.0	0.0333333333333	0.1333333333333	0.0666666666667	298.8032031059265	
13	288.0991470813751	response	0	b		0.16666667	0.0666666666667	270.0	256.0	0.0333333333333	0.1333333333333	0.0666666666667	298.8419351577759	
13	289.66028213500977	pulse	0	t		0.16666667	0.0666666666667	270.0	256.0	0.0333333333333	0.1333333333333	0.0666666666667	300.4030702114105	
13	291.260262966156	pulse	0	t		0.16666667	0.0666666666667	270.0	256.0	0.0333333333333	0.1333333333333	0.0666666666667	302.00305104255676	
13	291.3131251335144	response	0	b		0.16666667	0.0666666666667	270.0	256.0	0.0333333333333	0.1333333333333	0.0666666666667	302.05591320991516	
13	292.8603789806366	pulse	0	t		0.16666667	0.0666666666667	270.0	256.0	0.0333333333333	0.1333333333333	0.0666666666667	303.60316705703735	
13	293.94346499443054	response	0	b		0.16666667	0.0666666666667	270.0	256.0	0.0333333333333	0.1333333333333	0.0666666666667	304.6862530708313	
13	294.46044301986694	pulse	0	t		0.16666667	0.0666666666667	270.0	256.0	0.0333333333333	0.1333333333333	0.0666666666667	305.2032310962677	
13	296.06047797203064	pulse	0	t		0.16666667	0.0666666666667	270.0	256.0	0.0333333333333	0.1333333333333	0.0666666666667	306.8032660484314	
13	297.6604039669037	pulse	0	t		0.16666667	0.0666666666667	270.0	256.0	0.0333333333333	0.1333333333333	0.0666666666667	308.40319204330444	
13	299.26039814949036	pulse	0	t		0.16666667	0.0666666666667	270.0	256.0	0.0333333333333	0.1333333333333	0.0666666666667	310.0031862258911	
13	300.86046504974365	pulse	0	t		0.16666667	0.0666666666667	270.0	256.0	0.0333333333333	0.1333333333333	0.0666666666667	311.6032531261444	
13	301.8734710216522	response	0	b		0.16666667	0.0666666666667	270.0	256.0	0.0333333333333	0.1333333333333	0.0666666666667	312.616259098053	
13	302.4604289531708	pulse	0	t		0.16666667	0.0666666666667	270.0	256.0	0.0333333333333	0.1333333333333	0.0666666666667	313.20321702957153	
13	304.0604410171509	pulse	0	t		0.16666667	0.0666666666667	270.0	256.0	0.0333333333333	0.1333333333333	0.0666666666667	314.80322909355164	
13	304.1643531322479	response	0	b		0.16666667	0.0666666666667	270.0	256.0	0.0333333333333	0.1333333333333	0.0666666666667	314.9071412086487	
13	305.6605041027069	pulse	0	t		0.16666667	0.0666666666667	270.0	256.0	0.0333333333333	0.1333333333333	0.0666666666667	316.40329217910767	
13	307.2605459690094	pulse	0	t		0.16666667	0.0666666666667	270.0	256.0	0.0333333333333	0.1333333333333	0.0666666666667	318.00333404541016	
13	308.86052203178406	pulse	0	t		0.16666667	0.0666666666667	270.0	256.0	0.0333333333333	0.1333333333333	0.0666666666667	319.6033101081848	
13	308.88288402557373	response	0	b		0.16666667	0.0666666666667	270.0	256.0	0.0333333333333	0.1333333333333	0.0666666666667	319.6256721019745	
13	310.4606420993805	pulse	0	t		0.16666667	0.0666666666667	270.0	256.0	0.0333333333333	0.1333333333333	0.0666666666667	321.20343017578125	
14	310.4878520965576	stim	0		0								321.2306401729584	24.72033405303955
14	312.06311202049255	pulse	0	t									322.8059000968933	
14	313.6635310649872	pulse	0	t									324.40631914138794	
14	315.26368498802185	pulse	0	t									326.0064730644226	
14	315.855437040329	response	0	b									326.59822511672974	
14	316.8639850616455	pulse	0	t									327.60677313804626	
14	318.4640519618988	pulse	0	t									329.20684003829956	
14	320.0645091533661	pulse	0	t									330.80729722976685	
14	321.66469717025757	pulse	0	t									332.4074852466583	
14	323.2649040222168	pulse	0	t									334.00769209861755	
14	324.8650619983673	pulse	0	t									335.60785007476807	
14	325.6235451698303	response	0	b									336.3663332462311	
14	326.46524715423584	pulse	0	t									337.2080352306366	
14	328.0656020641327	pulse	0	t									338.80839014053345	
14	328.10886311531067	response	0	b									338.8516511917114	
14	329.6658511161804	pulse	0	t									340.4086391925812	
14	331.2661221027374	pulse	0	t									342.0089101791382	
14	332.8662521839142	pulse	0	t									343.60904026031494	
14	334.46647810935974	pulse	0	t									345.2092661857605	
