trial_nr	onset	event_type	phase	response	nr_frames	bar_width	bar_refresh_time	bar_direction	start_time	bar_blank_duration	bar_blank_interval	bg_stim_refresh_time	onset_abs	duration
0	0.18343400955200195	stim	0		0								12.449530839920044	1.8501949310302734
0	2.019252061843872	response	0	space									14.285348892211914	
1	2.0336289405822754	stim	0		0								14.299725770950317	41.17643618583679
1	43.19060492515564	pulse	0	t									55.45670175552368	
1	43.21006512641907	stim	1		0								55.47616195678711	0.0007328987121582031
1	43.210798025131226	stim	0		0								55.47689485549927	23.99926996231079
1	44.78193497657776	pulse	0	t									57.0480318069458	
1	46.382071018218994	pulse	0	t									58.648167848587036	
1	47.58220195770264	response	0	b									59.84829878807068	
1	47.98226499557495	pulse	0	t									60.24836182594299	
1	49.49102997779846	response	0	b									61.757126808166504	
1	49.58248710632324	pulse	0	t									61.848583936691284	
1	51.18283295631409	pulse	0	t									63.44892978668213	
1	52.78305697441101	pulse	0	t									65.04915380477905	
1	53.67487692832947	response	0	b									65.94097375869751	
1	54.38322901725769	pulse	0	t									66.64932584762573	
1	55.98350501060486	pulse	0	t									68.2496018409729	
1	56.26693797111511	response	0	b									68.53303480148315	
1	57.58380198478699	pulse	0	t									69.84989881515503	
1	59.18403601646423	pulse	0	t									71.45013284683228	
1	59.192245960235596	response	0	b									71.45834279060364	
1	60.78418207168579	pulse	0	t									73.05027890205383	
1	62.38446092605591	pulse	0	t									74.65055775642395	
1	63.98475909233093	pulse	0	t									76.25085592269897	
1	65.58499312400818	pulse	0	t									77.85108995437622	
1	67.18532204627991	pulse	0	t									79.45141887664795	
2	67.21006798744202	stim	0		0	0.16666667	0.0666666666667	270.0	24.0	0.0333333333333	0.1333333333333	0.0666666666667	79.47616481781006	23.99516010284424
2	68.77903199195862	pulse	0	t		0.16666667	0.0666666666667	270.0	24.0	0.0333333333333	0.1333333333333	0.0666666666667	81.04512882232666	
2	70.3790271282196	pulse	0	t		0.16666667	0.0666666666667	270.0	24.0	0.0333333333333	0.1333333333333	0.0666666666667	82.64512395858765	
2	71.97910404205322	pulse	0	t		0.16666667	0.0666666666667	270.0	24.0	0.0333333333333	0.1333333333333	0.0666666666667	84.24520087242126	
2	73.57913708686829	pulse	0	t		0.16666667	0.0666666666667	270.0	24.0	0.0333333333333	0.1333333333333	0.0666666666667	85.84523391723633	
2	73.96401000022888	response	0	b		0.16666667	0.0666666666667	270.0	24.0	0.0333333333333	0.1333333333333	0.0666666666667	86.23010683059692	
2	75.17908692359924	pulse	0	t		0.16666667	0.0666666666667	270.0	24.0	0.0333333333333	0.1333333333333	0.0666666666667	87.44518375396729	
2	76.77914094924927	pulse	0	t		0.16666667	0.0666666666667	270.0	24.0	0.0333333333333	0.1333333333333	0.0666666666667	89.04523777961731	
2	78.37911891937256	pulse	0	t		0.16666667	0.0666666666667	270.0	24.0	0.0333333333333	0.1333333333333	0.0666666666667	90.6452157497406	
2	79.97913908958435	pulse	0	t		0.16666667	0.0666666666667	270.0	24.0	0.0333333333333	0.1333333333333	0.0666666666667	92.24523591995239	
2	80.24008893966675	response	0	b		0.16666667	0.0666666666667	270.0	24.0	0.0333333333333	0.1333333333333	0.0666666666667	92.50618577003479	
2	81.57909107208252	pulse	0	t		0.16666667	0.0666666666667	270.0	24.0	0.0333333333333	0.1333333333333	0.0666666666667	93.84518790245056	
2	82.66118693351746	response	0	b		0.16666667	0.0666666666667	270.0	24.0	0.0333333333333	0.1333333333333	0.0666666666667	94.9272837638855	
2	83.17912912368774	pulse	0	t		0.16666667	0.0666666666667	270.0	24.0	0.0333333333333	0.1333333333333	0.0666666666667	95.44522595405579	
2	84.77918696403503	pulse	0	t		0.16666667	0.0666666666667	270.0	24.0	0.0333333333333	0.1333333333333	0.0666666666667	97.04528379440308	
2	84.97606492042542	response	0	b		0.16666667	0.0666666666667	270.0	24.0	0.0333333333333	0.1333333333333	0.0666666666667	97.24216175079346	
2	86.37923097610474	pulse	0	t		0.16666667	0.0666666666667	270.0	24.0	0.0333333333333	0.1333333333333	0.0666666666667	98.64532780647278	
2	87.97925209999084	pulse	0	t		0.16666667	0.0666666666667	270.0	24.0	0.0333333333333	0.1333333333333	0.0666666666667	100.24534893035889	
2	88.17209100723267	response	0	b		0.16666667	0.0666666666667	270.0	24.0	0.0333333333333	0.1333333333333	0.0666666666667	100.43818783760071	
2	89.57923412322998	pulse	0	t		0.16666667	0.0666666666667	270.0	24.0	0.0333333333333	0.1333333333333	0.0666666666667	101.84533095359802	
2	90.980299949646	response	0	b		0.16666667	0.0666666666667	270.0	24.0	0.0333333333333	0.1333333333333	0.0666666666667	103.24639678001404	
2	91.17923092842102	pulse	0	t		0.16666667	0.0666666666667	270.0	24.0	0.0333333333333	0.1333333333333	0.0666666666667	103.44532775878906	
3	91.20522809028625	stim	0		0	0.16666667	0.0666666666667	0.0	48.0	0.0333333333333	0.1333333333333	0.0666666666667	103.4713249206543	24.011975049972534
3	92.77932596206665	pulse	0	t		0.16666667	0.0666666666667	0.0	48.0	0.0333333333333	0.1333333333333	0.0666666666667	105.04542279243469	
3	94.37933802604675	pulse	0	t		0.16666667	0.0666666666667	0.0	48.0	0.0333333333333	0.1333333333333	0.0666666666667	106.6454348564148	
3	95.97934198379517	pulse	0	t		0.16666667	0.0666666666667	0.0	48.0	0.0333333333333	0.1333333333333	0.0666666666667	108.24543881416321	
3	97.35836911201477	response	0	b		0.16666667	0.0666666666667	0.0	48.0	0.0333333333333	0.1333333333333	0.0666666666667	109.62446594238281	
3	97.57924008369446	pulse	0	t		0.16666667	0.0666666666667	0.0	48.0	0.0333333333333	0.1333333333333	0.0666666666667	109.8453369140625	
3	99.17938995361328	pulse	0	t		0.16666667	0.0666666666667	0.0	48.0	0.0333333333333	0.1333333333333	0.0666666666667	111.44548678398132	
3	100.77939295768738	pulse	0	t		0.16666667	0.0666666666667	0.0	48.0	0.0333333333333	0.1333333333333	0.0666666666667	113.04548978805542	
3	102.37940502166748	pulse	0	t		0.16666667	0.0666666666667	0.0	48.0	0.0333333333333	0.1333333333333	0.0666666666667	114.64550185203552	
3	103.97946906089783	pulse	0	t		0.16666667	0.0666666666667	0.0	48.0	0.0333333333333	0.1333333333333	0.0666666666667	116.24556589126587	
3	105.41141700744629	response	0	b		0.16666667	0.0666666666667	0.0	48.0	0.0333333333333	0.1333333333333	0.0666666666667	117.67751383781433	
3	105.57927799224854	pulse	0	t		0.16666667	0.0666666666667	0.0	48.0	0.0333333333333	0.1333333333333	0.0666666666667	117.84537482261658	
3	107.17951202392578	pulse	0	t		0.16666667	0.0666666666667	0.0	48.0	0.0333333333333	0.1333333333333	0.0666666666667	119.44560885429382	
3	108.77949404716492	pulse	0	t		0.16666667	0.0666666666667	0.0	48.0	0.0333333333333	0.1333333333333	0.0666666666667	121.04559087753296	
3	110.37947702407837	pulse	0	t		0.16666667	0.0666666666667	0.0	48.0	0.0333333333333	0.1333333333333	0.0666666666667	122.64557385444641	
3	110.50640201568604	response	0	b		0.16666667	0.0666666666667	0.0	48.0	0.0333333333333	0.1333333333333	0.0666666666667	122.77249884605408	
3	111.97952198982239	pulse	0	t		0.16666667	0.0666666666667	0.0	48.0	0.0333333333333	0.1333333333333	0.0666666666667	124.24561882019043	
3	113.5795271396637	pulse	0	t		0.16666667	0.0666666666667	0.0	48.0	0.0333333333333	0.1333333333333	0.0666666666667	125.84562397003174	
3	115.17959809303284	pulse	0	t		0.16666667	0.0666666666667	0.0	48.0	0.0333333333333	0.1333333333333	0.0666666666667	127.44569492340088	
4	115.21720314025879	stim	0		0	-1.0	1.0	-1.0	72.0	0.0333333333333	0.1333333333333	0.0666666666667	127.48329997062683	15.994024991989136
4	116.78429102897644	pulse	0	t		-1.0	1.0	-1.0	72.0	0.0333333333333	0.1333333333333	0.0666666666667	129.05038785934448	
4	118.38441705703735	pulse	0	t		-1.0	1.0	-1.0	72.0	0.0333333333333	0.1333333333333	0.0666666666667	130.6505138874054	
4	119.81809496879578	response	0	b		-1.0	1.0	-1.0	72.0	0.0333333333333	0.1333333333333	0.0666666666667	132.08419179916382	
4	119.98475694656372	pulse	0	t		-1.0	1.0	-1.0	72.0	0.0333333333333	0.1333333333333	0.0666666666667	132.25085377693176	
4	121.58503103256226	pulse	0	t		-1.0	1.0	-1.0	72.0	0.0333333333333	0.1333333333333	0.0666666666667	133.8511278629303	
4	123.18529796600342	pulse	0	t		-1.0	1.0	-1.0	72.0	0.0333333333333	0.1333333333333	0.0666666666667	135.45139479637146	
4	123.54555010795593	response	0	b		-1.0	1.0	-1.0	72.0	0.0333333333333	0.1333333333333	0.0666666666667	135.81164693832397	
4	124.78538799285889	pulse	0	t		-1.0	1.0	-1.0	72.0	0.0333333333333	0.1333333333333	0.0666666666667	137.05148482322693	
4	126.21898794174194	response	0	b		-1.0	1.0	-1.0	72.0	0.0333333333333	0.1333333333333	0.0666666666667	138.48508477210999	
4	126.38565492630005	pulse	0	t		-1.0	1.0	-1.0	72.0	0.0333333333333	0.1333333333333	0.0666666666667	138.6517517566681	
4	127.9858911037445	pulse	0	t		-1.0	1.0	-1.0	72.0	0.0333333333333	0.1333333333333	0.0666666666667	140.25198793411255	
4	129.5797369480133	pulse	0	t		-1.0	1.0	-1.0	72.0	0.0333333333333	0.1333333333333	0.0666666666667	141.84583377838135	
4	131.1798529624939	pulse	0	t		-1.0	1.0	-1.0	72.0	0.0333333333333	0.1333333333333	0.0666666666667	143.44594979286194	
5	131.21122813224792	stim	0		0	0.16666667	0.0666666666667	90.0	88.0	0.0333333333333	0.1333333333333	0.0666666666667	143.47732496261597	23.995243787765503
5	132.77975296974182	pulse	0	t		0.16666667	0.0666666666667	90.0	88.0	0.0333333333333	0.1333333333333	0.0666666666667	145.04584980010986	
5	134.37981414794922	pulse	0	t		0.16666667	0.0666666666667	90.0	88.0	0.0333333333333	0.1333333333333	0.0666666666667	146.64591097831726	
5	135.97984504699707	pulse	0	t		0.16666667	0.0666666666667	90.0	88.0	0.0333333333333	0.1333333333333	0.0666666666667	148.2459418773651	
5	136.88180208206177	response	0	b		0.16666667	0.0666666666667	90.0	88.0	0.0333333333333	0.1333333333333	0.0666666666667	149.1478989124298	
5	137.579852104187	pulse	0	t		0.16666667	0.0666666666667	90.0	88.0	0.0333333333333	0.1333333333333	0.0666666666667	149.84594893455505	
5	139.1798939704895	pulse	0	t		0.16666667	0.0666666666667	90.0	88.0	0.0333333333333	0.1333333333333	0.0666666666667	151.44599080085754	
5	140.7799940109253	pulse	0	t		0.16666667	0.0666666666667	90.0	88.0	0.0333333333333	0.1333333333333	0.0666666666667	153.04609084129333	
5	142.3800299167633	pulse	0	t		0.16666667	0.0666666666667	90.0	88.0	0.0333333333333	0.1333333333333	0.0666666666667	154.64612674713135	
5	143.9800419807434	pulse	0	t		0.16666667	0.0666666666667	90.0	88.0	0.0333333333333	0.1333333333333	0.0666666666667	156.24613881111145	
5	145.5800359249115	pulse	0	t		0.16666667	0.0666666666667	90.0	88.0	0.0333333333333	0.1333333333333	0.0666666666667	157.84613275527954	
5	147.1800820827484	pulse	0	t		0.16666667	0.0666666666667	90.0	88.0	0.0333333333333	0.1333333333333	0.0666666666667	159.44617891311646	
5	148.77998208999634	pulse	0	t		0.16666667	0.0666666666667	90.0	88.0	0.0333333333333	0.1333333333333	0.0666666666667	161.04607892036438	
5	148.81086111068726	response	0	b		0.16666667	0.0666666666667	90.0	88.0	0.0333333333333	0.1333333333333	0.0666666666667	161.0769579410553	
5	150.38004994392395	pulse	0	t		0.16666667	0.0666666666667	90.0	88.0	0.0333333333333	0.1333333333333	0.0666666666667	162.646146774292	
5	151.98007702827454	pulse	0	t		0.16666667	0.0666666666667	90.0	88.0	0.0333333333333	0.1333333333333	0.0666666666667	164.24617385864258	
5	153.58008098602295	pulse	0	t		0.16666667	0.0666666666667	90.0	88.0	0.0333333333333	0.1333333333333	0.0666666666667	165.846177816391	
5	153.79494905471802	response	0	b		0.16666667	0.0666666666667	90.0	88.0	0.0333333333333	0.1333333333333	0.0666666666667	166.06104588508606	
5	155.1800811290741	pulse	0	t		0.16666667	0.0666666666667	90.0	88.0	0.0333333333333	0.1333333333333	0.0666666666667	167.44617795944214	
6	155.20647192001343	stim	0		0	0.16666667	0.0666666666667	180.0	112.0	0.0333333333333	0.1333333333333	0.0666666666667	167.47256875038147	24.01192617416382
6	156.7801170349121	pulse	0	t		0.16666667	0.0666666666667	180.0	112.0	0.0333333333333	0.1333333333333	0.0666666666667	169.04621386528015	
6	158.3800950050354	pulse	0	t		0.16666667	0.0666666666667	180.0	112.0	0.0333333333333	0.1333333333333	0.0666666666667	170.64619183540344	
6	159.97911095619202	pulse	0	t		0.16666667	0.0666666666667	180.0	112.0	0.0333333333333	0.1333333333333	0.0666666666667	172.24520778656006	
6	161.57919096946716	pulse	0	t		0.16666667	0.0666666666667	180.0	112.0	0.0333333333333	0.1333333333333	0.0666666666667	173.8452877998352	
6	162.60388612747192	response	0	b		0.16666667	0.0666666666667	180.0	112.0	0.0333333333333	0.1333333333333	0.0666666666667	174.86998295783997	
6	163.17917394638062	pulse	0	t		0.16666667	0.0666666666667	180.0	112.0	0.0333333333333	0.1333333333333	0.0666666666667	175.44527077674866	
6	164.7792191505432	pulse	0	t		0.16666667	0.0666666666667	180.0	112.0	0.0333333333333	0.1333333333333	0.0666666666667	177.04531598091125	
6	166.37920808792114	pulse	0	t		0.16666667	0.0666666666667	180.0	112.0	0.0333333333333	0.1333333333333	0.0666666666667	178.64530491828918	
6	167.97923707962036	pulse	0	t		0.16666667	0.0666666666667	180.0	112.0	0.0333333333333	0.1333333333333	0.0666666666667	180.2453339099884	
6	168.32216691970825	response	0	b		0.16666667	0.0666666666667	180.0	112.0	0.0333333333333	0.1333333333333	0.0666666666667	180.5882637500763	
6	169.57920694351196	pulse	0	t		0.16666667	0.0666666666667	180.0	112.0	0.0333333333333	0.1333333333333	0.0666666666667	181.84530377388	
6	171.17929792404175	pulse	0	t		0.16666667	0.0666666666667	180.0	112.0	0.0333333333333	0.1333333333333	0.0666666666667	183.4453947544098	
6	172.77931904792786	pulse	0	t		0.16666667	0.0666666666667	180.0	112.0	0.0333333333333	0.1333333333333	0.0666666666667	185.0454158782959	
6	174.0094120502472	response	0	b		0.16666667	0.0666666666667	180.0	112.0	0.0333333333333	0.1333333333333	0.0666666666667	186.27550888061523	
6	174.3792381286621	pulse	0	t		0.16666667	0.0666666666667	180.0	112.0	0.0333333333333	0.1333333333333	0.0666666666667	186.64533495903015	
6	175.97932696342468	pulse	0	t		0.16666667	0.0666666666667	180.0	112.0	0.0333333333333	0.1333333333333	0.0666666666667	188.24542379379272	
6	176.88933396339417	response	0	b		0.16666667	0.0666666666667	180.0	112.0	0.0333333333333	0.1333333333333	0.0666666666667	189.1554307937622	
6	177.5793309211731	pulse	0	t		0.16666667	0.0666666666667	180.0	112.0	0.0333333333333	0.1333333333333	0.0666666666667	189.84542775154114	
6	179.17939615249634	pulse	0	t		0.16666667	0.0666666666667	180.0	112.0	0.0333333333333	0.1333333333333	0.0666666666667	191.44549298286438	
7	179.21839809417725	stim	0		0	-1.0	1.0	-1.0	136.0	0.0333333333333	0.1333333333333	0.0666666666667	191.4844949245453	15.994200944900513
7	179.9272129535675	response	0	b		-1.0	1.0	-1.0	136.0	0.0333333333333	0.1333333333333	0.0666666666667	192.19330978393555	
7	180.7855041027069	pulse	0	t		-1.0	1.0	-1.0	136.0	0.0333333333333	0.1333333333333	0.0666666666667	193.05160093307495	
7	182.38575792312622	pulse	0	t		-1.0	1.0	-1.0	136.0	0.0333333333333	0.1333333333333	0.0666666666667	194.65185475349426	
7	183.17751908302307	response	0	b		-1.0	1.0	-1.0	136.0	0.0333333333333	0.1333333333333	0.0666666666667	195.4436159133911	
7	183.97954201698303	pulse	0	t		-1.0	1.0	-1.0	136.0	0.0333333333333	0.1333333333333	0.0666666666667	196.24563884735107	
7	185.57967805862427	pulse	0	t		-1.0	1.0	-1.0	136.0	0.0333333333333	0.1333333333333	0.0666666666667	197.8457748889923	
7	185.8963930606842	response	0	b		-1.0	1.0	-1.0	136.0	0.0333333333333	0.1333333333333	0.0666666666667	198.16248989105225	
7	187.17986702919006	pulse	0	t		-1.0	1.0	-1.0	136.0	0.0333333333333	0.1333333333333	0.0666666666667	199.4459638595581	
7	188.78002095222473	pulse	0	t		-1.0	1.0	-1.0	136.0	0.0333333333333	0.1333333333333	0.0666666666667	201.04611778259277	
7	190.3804259300232	pulse	0	t		-1.0	1.0	-1.0	136.0	0.0333333333333	0.1333333333333	0.0666666666667	202.64652276039124	
7	191.98051714897156	pulse	0	t		-1.0	1.0	-1.0	136.0	0.0333333333333	0.1333333333333	0.0666666666667	204.2466139793396	
7	193.38911700248718	response	0	b		-1.0	1.0	-1.0	136.0	0.0333333333333	0.1333333333333	0.0666666666667	205.65521383285522	
7	193.58072805404663	pulse	0	t		-1.0	1.0	-1.0	136.0	0.0333333333333	0.1333333333333	0.0666666666667	205.84682488441467	
7	195.18116998672485	pulse	0	t		-1.0	1.0	-1.0	136.0	0.0333333333333	0.1333333333333	0.0666666666667	207.4472668170929	
8	195.21259903907776	stim	0		0	-1.0	1.0	-1.0	152.0	0.0333333333333	0.1333333333333	0.0666666666667	207.4786958694458	16.002273082733154
8	196.78129506111145	pulse	0	t		-1.0	1.0	-1.0	152.0	0.0333333333333	0.1333333333333	0.0666666666667	209.0473918914795	
8	198.37974095344543	pulse	0	t		-1.0	1.0	-1.0	152.0	0.0333333333333	0.1333333333333	0.0666666666667	210.64583778381348	
8	199.97996306419373	pulse	0	t		-1.0	1.0	-1.0	152.0	0.0333333333333	0.1333333333333	0.0666666666667	212.24605989456177	
8	201.58027601242065	pulse	0	t		-1.0	1.0	-1.0	152.0	0.0333333333333	0.1333333333333	0.0666666666667	213.8463728427887	
8	203.1804130077362	pulse	0	t		-1.0	1.0	-1.0	152.0	0.0333333333333	0.1333333333333	0.0666666666667	215.44650983810425	
8	203.4138150215149	response	0	b		-1.0	1.0	-1.0	152.0	0.0333333333333	0.1333333333333	0.0666666666667	215.67991185188293	
8	204.78073692321777	pulse	0	t		-1.0	1.0	-1.0	152.0	0.0333333333333	0.1333333333333	0.0666666666667	217.04683375358582	
8	206.38095808029175	pulse	0	t		-1.0	1.0	-1.0	152.0	0.0333333333333	0.1333333333333	0.0666666666667	218.6470549106598	
8	206.831041097641	response	0	b		-1.0	1.0	-1.0	152.0	0.0333333333333	0.1333333333333	0.0666666666667	219.09713792800903	
8	207.98113799095154	pulse	0	t		-1.0	1.0	-1.0	152.0	0.0333333333333	0.1333333333333	0.0666666666667	220.24723482131958	
8	209.58136296272278	pulse	0	t		-1.0	1.0	-1.0	152.0	0.0333333333333	0.1333333333333	0.0666666666667	221.84745979309082	
8	210.18148112297058	response	0	b		-1.0	1.0	-1.0	152.0	0.0333333333333	0.1333333333333	0.0666666666667	222.44757795333862	
8	211.18172693252563	pulse	0	t		-1.0	1.0	-1.0	152.0	0.0333333333333	0.1333333333333	0.0666666666667	223.44782376289368	
9	211.2148721218109	stim	0		0	0.16666667	0.0666666666667	180.0	168.0	0.0333333333333	0.1333333333333	0.0666666666667	223.48096895217896	23.995271921157837
9	212.779855966568	pulse	0	t		0.16666667	0.0666666666667	180.0	168.0	0.0333333333333	0.1333333333333	0.0666666666667	225.04595279693604	
9	213.2808711528778	response	0	b		0.16666667	0.0666666666667	180.0	168.0	0.0333333333333	0.1333333333333	0.0666666666667	225.54696798324585	
9	214.37987112998962	pulse	0	t		0.16666667	0.0666666666667	180.0	168.0	0.0333333333333	0.1333333333333	0.0666666666667	226.64596796035767	
9	215.49692702293396	response	0	b		0.16666667	0.0666666666667	180.0	168.0	0.0333333333333	0.1333333333333	0.0666666666667	227.763023853302	
9	215.97986793518066	pulse	0	t		0.16666667	0.0666666666667	180.0	168.0	0.0333333333333	0.1333333333333	0.0666666666667	228.2459647655487	
9	217.5799901485443	pulse	0	t		0.16666667	0.0666666666667	180.0	168.0	0.0333333333333	0.1333333333333	0.0666666666667	229.84608697891235	
9	217.65274214744568	response	0	b		0.16666667	0.0666666666667	180.0	168.0	0.0333333333333	0.1333333333333	0.0666666666667	229.91883897781372	
9	219.18001413345337	pulse	0	t		0.16666667	0.0666666666667	180.0	168.0	0.0333333333333	0.1333333333333	0.0666666666667	231.4461109638214	
9	220.20405912399292	response	0	b		0.16666667	0.0666666666667	180.0	168.0	0.0333333333333	0.1333333333333	0.0666666666667	232.47015595436096	
9	220.7799780368805	pulse	0	t		0.16666667	0.0666666666667	180.0	168.0	0.0333333333333	0.1333333333333	0.0666666666667	233.04607486724854	
9	222.38000011444092	pulse	0	t		0.16666667	0.0666666666667	180.0	168.0	0.0333333333333	0.1333333333333	0.0666666666667	234.64609694480896	
9	223.51506114006042	response	0	b		0.16666667	0.0666666666667	180.0	168.0	0.0333333333333	0.1333333333333	0.0666666666667	235.78115797042847	
9	223.97998309135437	pulse	0	t		0.16666667	0.0666666666667	180.0	168.0	0.0333333333333	0.1333333333333	0.0666666666667	236.2460799217224	
9	225.58008408546448	pulse	0	t		0.16666667	0.0666666666667	180.0	168.0	0.0333333333333	0.1333333333333	0.0666666666667	237.84618091583252	
9	227.18010091781616	pulse	0	t		0.16666667	0.0666666666667	180.0	168.0	0.0333333333333	0.1333333333333	0.0666666666667	239.4461977481842	
9	227.99406099319458	response	0	b		0.16666667	0.0666666666667	180.0	168.0	0.0333333333333	0.1333333333333	0.0666666666667	240.26015782356262	
9	228.77998995780945	pulse	0	t		0.16666667	0.0666666666667	180.0	168.0	0.0333333333333	0.1333333333333	0.0666666666667	241.0460867881775	
9	230.38001012802124	pulse	0	t		0.16666667	0.0666666666667	180.0	168.0	0.0333333333333	0.1333333333333	0.0666666666667	242.64610695838928	
9	231.9800591468811	pulse	0	t		0.16666667	0.0666666666667	180.0	168.0	0.0333333333333	0.1333333333333	0.0666666666667	244.24615597724915	
9	233.3830690383911	response	0	b		0.16666667	0.0666666666667	180.0	168.0	0.0333333333333	0.1333333333333	0.0666666666667	245.64916586875916	
9	233.57996201515198	pulse	0	t		0.16666667	0.0666666666667	180.0	168.0	0.0333333333333	0.1333333333333	0.0666666666667	245.84605884552002	
9	235.18010902404785	pulse	0	t		0.16666667	0.0666666666667	180.0	168.0	0.0333333333333	0.1333333333333	0.0666666666667	247.4462058544159	
10	235.21014404296875	stim	0		0	0.16666667	0.0666666666667	90.0	192.0	0.0333333333333	0.1333333333333	0.0666666666667	247.4762408733368	23.995234966278076
10	236.7801010608673	pulse	0	t		0.16666667	0.0666666666667	90.0	192.0	0.0333333333333	0.1333333333333	0.0666666666667	249.04619789123535	
10	238.38009214401245	pulse	0	t		0.16666667	0.0666666666667	90.0	192.0	0.0333333333333	0.1333333333333	0.0666666666667	250.6461889743805	
10	239.98009514808655	pulse	0	t		0.16666667	0.0666666666667	90.0	192.0	0.0333333333333	0.1333333333333	0.0666666666667	252.2461919784546	
10	241.58015203475952	pulse	0	t		0.16666667	0.0666666666667	90.0	192.0	0.0333333333333	0.1333333333333	0.0666666666667	253.84624886512756	
10	243.18018412590027	pulse	0	t		0.16666667	0.0666666666667	90.0	192.0	0.0333333333333	0.1333333333333	0.0666666666667	255.4462809562683	
10	244.78019499778748	pulse	0	t		0.16666667	0.0666666666667	90.0	192.0	0.0333333333333	0.1333333333333	0.0666666666667	257.0462918281555	
10	244.97204303741455	response	0	b		0.16666667	0.0666666666667	90.0	192.0	0.0333333333333	0.1333333333333	0.0666666666667	257.2381398677826	
10	246.38021993637085	pulse	0	t		0.16666667	0.0666666666667	90.0	192.0	0.0333333333333	0.1333333333333	0.0666666666667	258.6463167667389	
10	247.1661639213562	response	0	b		0.16666667	0.0666666666667	90.0	192.0	0.0333333333333	0.1333333333333	0.0666666666667	259.43226075172424	
10	247.98021006584167	pulse	0	t		0.16666667	0.0666666666667	90.0	192.0	0.0333333333333	0.1333333333333	0.0666666666667	260.2463068962097	
10	249.58023309707642	pulse	0	t		0.16666667	0.0666666666667	90.0	192.0	0.0333333333333	0.1333333333333	0.0666666666667	261.84632992744446	
10	250.57725310325623	response	0	b		0.16666667	0.0666666666667	90.0	192.0	0.0333333333333	0.1333333333333	0.0666666666667	262.84334993362427	
10	251.18023109436035	pulse	0	t		0.16666667	0.0666666666667	90.0	192.0	0.0333333333333	0.1333333333333	0.0666666666667	263.4463279247284	
10	252.7802619934082	pulse	0	t		0.16666667	0.0666666666667	90.0	192.0	0.0333333333333	0.1333333333333	0.0666666666667	265.04635882377625	
10	254.3792760372162	pulse	0	t		0.16666667	0.0666666666667	90.0	192.0	0.0333333333333	0.1333333333333	0.0666666666667	266.64537286758423	
10	254.56217503547668	response	0	b		0.16666667	0.0666666666667	90.0	192.0	0.0333333333333	0.1333333333333	0.0666666666667	266.8282718658447	
10	255.97932314872742	pulse	0	t		0.16666667	0.0666666666667	90.0	192.0	0.0333333333333	0.1333333333333	0.0666666666667	268.24541997909546	
10	257.57936000823975	pulse	0	t		0.16666667	0.0666666666667	90.0	192.0	0.0333333333333	0.1333333333333	0.0666666666667	269.8454568386078	
10	258.3763201236725	response	0	b		0.16666667	0.0666666666667	90.0	192.0	0.0333333333333	0.1333333333333	0.0666666666667	270.6424169540405	
10	259.17932891845703	pulse	0	t		0.16666667	0.0666666666667	90.0	192.0	0.0333333333333	0.1333333333333	0.0666666666667	271.4454257488251	
11	259.2053790092468	stim	0		0	-1.0	1.0	-1.0	216.0	0.0333333333333	0.1333333333333	0.0666666666667	271.47147583961487	16.010698080062866
11	260.78074193000793	pulse	0	t		-1.0	1.0	-1.0	216.0	0.0333333333333	0.1333333333333	0.0666666666667	273.046838760376	
11	261.2141809463501	response	0	b		-1.0	1.0	-1.0	216.0	0.0333333333333	0.1333333333333	0.0666666666667	273.48027777671814	
11	262.3810489177704	pulse	0	t		-1.0	1.0	-1.0	216.0	0.0333333333333	0.1333333333333	0.0666666666667	274.6471457481384	
11	263.83943605422974	response	0	b		-1.0	1.0	-1.0	216.0	0.0333333333333	0.1333333333333	0.0666666666667	276.1055328845978	
11	263.98126101493835	pulse	0	t		-1.0	1.0	-1.0	216.0	0.0333333333333	0.1333333333333	0.0666666666667	276.2473578453064	
11	265.58143496513367	pulse	0	t		-1.0	1.0	-1.0	216.0	0.0333333333333	0.1333333333333	0.0666666666667	277.8475317955017	
11	266.5733380317688	response	0	b		-1.0	1.0	-1.0	216.0	0.0333333333333	0.1333333333333	0.0666666666667	278.83943486213684	
11	267.1817090511322	pulse	0	t		-1.0	1.0	-1.0	216.0	0.0333333333333	0.1333333333333	0.0666666666667	279.44780588150024	
11	268.7818830013275	pulse	0	t		-1.0	1.0	-1.0	216.0	0.0333333333333	0.1333333333333	0.0666666666667	281.04797983169556	
11	269.3153009414673	response	0	b		-1.0	1.0	-1.0	216.0	0.0333333333333	0.1333333333333	0.0666666666667	281.5813977718353	
11	270.3822350502014	pulse	0	t		-1.0	1.0	-1.0	216.0	0.0333333333333	0.1333333333333	0.0666666666667	282.64833188056946	
11	271.98238015174866	pulse	0	t		-1.0	1.0	-1.0	216.0	0.0333333333333	0.1333333333333	0.0666666666667	284.2484769821167	
11	272.3427290916443	response	0	b		-1.0	1.0	-1.0	216.0	0.0333333333333	0.1333333333333	0.0666666666667	284.60882592201233	
11	273.5827510356903	pulse	0	t		-1.0	1.0	-1.0	216.0	0.0333333333333	0.1333333333333	0.0666666666667	285.84884786605835	
11	275.18295192718506	pulse	0	t		-1.0	1.0	-1.0	216.0	0.0333333333333	0.1333333333333	0.0666666666667	287.4490487575531	
12	275.2160770893097	stim	0		0	0.16666667	0.0666666666667	0.0	232.0	0.0333333333333	0.1333333333333	0.0666666666667	287.48217391967773	23.9952130317688
12	276.779541015625	pulse	0	t		0.16666667	0.0666666666667	0.0	232.0	0.0333333333333	0.1333333333333	0.0666666666667	289.04563784599304	
12	278.37957310676575	pulse	0	t		0.16666667	0.0666666666667	0.0	232.0	0.0333333333333	0.1333333333333	0.0666666666667	290.6456699371338	
12	278.6194291114807	response	0	b		0.16666667	0.0666666666667	0.0	232.0	0.0333333333333	0.1333333333333	0.0666666666667	290.88552594184875	
12	279.9796860218048	pulse	0	t		0.16666667	0.0666666666667	0.0	232.0	0.0333333333333	0.1333333333333	0.0666666666667	292.24578285217285	
12	281.57966208457947	pulse	0	t		0.16666667	0.0666666666667	0.0	232.0	0.0333333333333	0.1333333333333	0.0666666666667	293.8457589149475	
12	283.17964696884155	pulse	0	t		0.16666667	0.0666666666667	0.0	232.0	0.0333333333333	0.1333333333333	0.0666666666667	295.4457437992096	
12	284.7795920372009	pulse	0	t		0.16666667	0.0666666666667	0.0	232.0	0.0333333333333	0.1333333333333	0.0666666666667	297.04568886756897	
12	286.37972593307495	pulse	0	t		0.16666667	0.0666666666667	0.0	232.0	0.0333333333333	0.1333333333333	0.0666666666667	298.645822763443	
12	287.97968196868896	pulse	0	t		0.16666667	0.0666666666667	0.0	232.0	0.0333333333333	0.1333333333333	0.0666666666667	300.245778799057	
12	289.57967710494995	pulse	0	t		0.16666667	0.0666666666667	0.0	232.0	0.0333333333333	0.1333333333333	0.0666666666667	301.845773935318	
12	291.17972207069397	pulse	0	t		0.16666667	0.0666666666667	0.0	232.0	0.0333333333333	0.1333333333333	0.0666666666667	303.445818901062	
12	292.10966396331787	response	0	b		0.16666667	0.0666666666667	0.0	232.0	0.0333333333333	0.1333333333333	0.0666666666667	304.3757607936859	
12	292.7797200679779	pulse	0	t		0.16666667	0.0666666666667	0.0	232.0	0.0333333333333	0.1333333333333	0.0666666666667	305.04581689834595	
12	294.3797299861908	pulse	0	t		0.16666667	0.0666666666667	0.0	232.0	0.0333333333333	0.1333333333333	0.0666666666667	306.64582681655884	
12	295.9797649383545	pulse	0	t		0.16666667	0.0666666666667	0.0	232.0	0.0333333333333	0.1333333333333	0.0666666666667	308.24586176872253	
12	297.36680006980896	response	0	b		0.16666667	0.0666666666667	0.0	232.0	0.0333333333333	0.1333333333333	0.0666666666667	309.632896900177	
12	297.5796420574188	pulse	0	t		0.16666667	0.0666666666667	0.0	232.0	0.0333333333333	0.1333333333333	0.0666666666667	309.84573888778687	
12	299.1797790527344	pulse	0	t		0.16666667	0.0666666666667	0.0	232.0	0.0333333333333	0.1333333333333	0.0666666666667	311.4458758831024	
13	299.2112901210785	stim	0		0	0.16666667	0.0666666666667	270.0	256.0	0.0333333333333	0.1333333333333	0.0666666666667	311.47738695144653	23.99527597427368
13	300.779855966568	pulse	0	t		0.16666667	0.0666666666667	270.0	256.0	0.0333333333333	0.1333333333333	0.0666666666667	313.04595279693604	
13	302.37986612319946	pulse	0	t		0.16666667	0.0666666666667	270.0	256.0	0.0333333333333	0.1333333333333	0.0666666666667	314.6459629535675	
13	303.97985100746155	pulse	0	t		0.16666667	0.0666666666667	270.0	256.0	0.0333333333333	0.1333333333333	0.0666666666667	316.2459478378296	
13	304.50485610961914	response	0	b		0.16666667	0.0666666666667	270.0	256.0	0.0333333333333	0.1333333333333	0.0666666666667	316.7709529399872	
13	305.5798931121826	pulse	0	t		0.16666667	0.0666666666667	270.0	256.0	0.0333333333333	0.1333333333333	0.0666666666667	317.84598994255066	
13	306.7628901004791	response	0	b		0.16666667	0.0666666666667	270.0	256.0	0.0333333333333	0.1333333333333	0.0666666666667	319.02898693084717	
13	307.17985796928406	pulse	0	t		0.16666667	0.0666666666667	270.0	256.0	0.0333333333333	0.1333333333333	0.0666666666667	319.4459547996521	
13	308.7800359725952	pulse	0	t		0.16666667	0.0666666666667	270.0	256.0	0.0333333333333	0.1333333333333	0.0666666666667	321.04613280296326	
13	310.3799810409546	pulse	0	t		0.16666667	0.0666666666667	270.0	256.0	0.0333333333333	0.1333333333333	0.0666666666667	322.64607787132263	
13	311.97998094558716	pulse	0	t		0.16666667	0.0666666666667	270.0	256.0	0.0333333333333	0.1333333333333	0.0666666666667	324.2460777759552	
13	312.5489480495453	response	0	b		0.16666667	0.0666666666667	270.0	256.0	0.0333333333333	0.1333333333333	0.0666666666667	324.81504487991333	
13	313.5799980163574	pulse	0	t		0.16666667	0.0666666666667	270.0	256.0	0.0333333333333	0.1333333333333	0.0666666666667	325.84609484672546	
13	314.90499806404114	response	0	b		0.16666667	0.0666666666667	270.0	256.0	0.0333333333333	0.1333333333333	0.0666666666667	327.1710948944092	
13	315.1799371242523	pulse	0	t		0.16666667	0.0666666666667	270.0	256.0	0.0333333333333	0.1333333333333	0.0666666666667	327.44603395462036	
13	316.7800660133362	pulse	0	t		0.16666667	0.0666666666667	270.0	256.0	0.0333333333333	0.1333333333333	0.0666666666667	329.0461628437042	
13	318.38006496429443	pulse	0	t		0.16666667	0.0666666666667	270.0	256.0	0.0333333333333	0.1333333333333	0.0666666666667	330.6461617946625	
13	319.5580689907074	response	0	b		0.16666667	0.0666666666667	270.0	256.0	0.0333333333333	0.1333333333333	0.0666666666667	331.82416582107544	
13	319.9801230430603	pulse	0	t		0.16666667	0.0666666666667	270.0	256.0	0.0333333333333	0.1333333333333	0.0666666666667	332.24621987342834	
13	321.58017206192017	pulse	0	t		0.16666667	0.0666666666667	270.0	256.0	0.0333333333333	0.1333333333333	0.0666666666667	333.8462688922882	
13	321.75406193733215	response	0	b		0.16666667	0.0666666666667	270.0	256.0	0.0333333333333	0.1333333333333	0.0666666666667	334.0201587677002	
13	323.180123090744	pulse	0	t		0.16666667	0.0666666666667	270.0	256.0	0.0333333333333	0.1333333333333	0.0666666666667	335.44621992111206	
14	323.2065660953522	stim	0		0								335.4726629257202	25.16223382949829
14	324.7820680141449	pulse	0	t									337.04816484451294	
14	326.3822331428528	pulse	0	t									338.6483299732208	
14	326.557165145874	response	0	b									338.82326197624207	
14	327.9824569225311	pulse	0	t									340.24855375289917	
14	329.1910729408264	response	0	b									341.45716977119446	
14	329.5827510356903	pulse	0	t									341.84884786605835	
14	331.1829891204834	pulse	0	t									343.44908595085144	
14	331.4912540912628	response	0	b									343.75735092163086	
14	332.783322095871	pulse	0	t									345.049418926239	
14	334.3833680152893	pulse	0	t									346.64946484565735	
14	335.14180302619934	response	0	b									347.4078998565674	
14	335.9836850166321	pulse	0	t									348.2497818470001	
14	337.5839259624481	pulse	0	t									349.85002279281616	
14	339.00070810317993	response	0	b									351.266804933548	
14	339.18412709236145	pulse	0	t									351.4502239227295	
14	340.7843120098114	pulse	0	t									353.05040884017944	
14	342.38466906547546	pulse	0	t									354.6507658958435	
14	343.6263611316681	response	0	b									355.89245796203613	
14	343.98484206199646	pulse	0	t									356.2509388923645	
14	345.5851340293884	pulse	0	t									357.85123085975647	
14	345.58827209472656	response	0	b									357.8543689250946	
14	347.18530011177063	pulse	0	t									359.4513969421387	
