trial_nr	onset	event_type	phase	response	nr_frames	bar_width	bar_refresh_time	bar_direction	start_time	bar_blank_duration	bar_blank_interval	bg_stim_refresh_time	onset_abs	duration
0	0.13321495056152344	stim	0		0								11.272612810134888	0.16662907600402832
0	0.2919580936431885	response	0	space									11.431355953216553	
1	0.29984402656555176	stim	0		0								11.439241886138916	30.89984893798828
1	31.18798589706421	pulse	0	t									42.32738375663757	
1	31.199692964553833	stim	1		0								42.3390908241272	0.0006840229034423828
1	31.200376987457275	stim	0		0								42.33977484703064	24.0075581073761
1	32.783190965652466	pulse	0	t									43.92258882522583	
1	34.38321805000305	pulse	0	t									45.522615909576416	
1	35.98312997817993	pulse	0	t									47.122527837753296	
1	37.583224058151245	pulse	0	t									48.72262191772461	
1	39.00821399688721	response	0	e									50.14761185646057	
1	39.18317699432373	pulse	0	t									50.322574853897095	
1	40.783217906951904	pulse	0	t									51.92261576652527	
1	41.67477798461914	response	0	e									52.814175844192505	
1	42.38317394256592	pulse	0	t									53.52257180213928	
1	43.982852935791016	pulse	0	t									55.12225079536438	
1	44.8584520816803	response	0	e									55.99784994125366	
1	45.583038091659546	pulse	0	t									56.72243595123291	
1	47.18308901786804	pulse	0	t									58.322486877441406	
1	48.501543045043945	response	0	e									59.64094090461731	
1	48.78319311141968	pulse	0	t									59.92259097099304	
1	50.38318490982056	pulse	0	t									61.52258276939392	
1	50.56644010543823	response	0	e									61.7058379650116	
1	51.98299598693848	pulse	0	t									63.12239384651184	
1	53.541563987731934	response	0	e									64.6809618473053	
1	53.58301591873169	pulse	0	t									64.72241377830505	
1	55.18311595916748	pulse	0	t									66.32251381874084	
2	55.207935094833374	stim	0		0	0.16666667	0.0666666666667	270.0	24.0	0.0333333333333	0.1333333333333	0.0666666666667	66.34733295440674	23.99150586128235
2	56.77696108818054	pulse	0	t		0.16666667	0.0666666666667	270.0	24.0	0.0333333333333	0.1333333333333	0.0666666666667	67.9163589477539	
2	58.376904010772705	pulse	0	t		0.16666667	0.0666666666667	270.0	24.0	0.0333333333333	0.1333333333333	0.0666666666667	69.51630187034607	
2	59.97781991958618	pulse	0	t		0.16666667	0.0666666666667	270.0	24.0	0.0333333333333	0.1333333333333	0.0666666666667	71.11721777915955	
2	60.968749046325684	response	0	e		0.16666667	0.0666666666667	270.0	24.0	0.0333333333333	0.1333333333333	0.0666666666667	72.10814690589905	
2	61.57766103744507	pulse	0	t		0.16666667	0.0666666666667	270.0	24.0	0.0333333333333	0.1333333333333	0.0666666666667	72.71705889701843	
2	62.899646043777466	response	0	e		0.16666667	0.0666666666667	270.0	24.0	0.0333333333333	0.1333333333333	0.0666666666667	74.03904390335083	
2	63.177496910095215	pulse	0	t		0.16666667	0.0666666666667	270.0	24.0	0.0333333333333	0.1333333333333	0.0666666666667	74.31689476966858	
2	64.77750706672668	pulse	0	t		0.16666667	0.0666666666667	270.0	24.0	0.0333333333333	0.1333333333333	0.0666666666667	75.91690492630005	
2	66.37744498252869	pulse	0	t		0.16666667	0.0666666666667	270.0	24.0	0.0333333333333	0.1333333333333	0.0666666666667	77.51684284210205	
2	67.97726011276245	pulse	0	t		0.16666667	0.0666666666667	270.0	24.0	0.0333333333333	0.1333333333333	0.0666666666667	79.11665797233582	
2	69.27215600013733	response	0	e		0.16666667	0.0666666666667	270.0	24.0	0.0333333333333	0.1333333333333	0.0666666666667	80.4115538597107	
2	69.57711791992188	pulse	0	t		0.16666667	0.0666666666667	270.0	24.0	0.0333333333333	0.1333333333333	0.0666666666667	80.71651577949524	
2	71.17712497711182	pulse	0	t		0.16666667	0.0666666666667	270.0	24.0	0.0333333333333	0.1333333333333	0.0666666666667	82.31652283668518	
2	71.75711607933044	response	0	e		0.16666667	0.0666666666667	270.0	24.0	0.0333333333333	0.1333333333333	0.0666666666667	82.89651393890381	
2	72.77699708938599	pulse	0	t		0.16666667	0.0666666666667	270.0	24.0	0.0333333333333	0.1333333333333	0.0666666666667	83.91639494895935	
2	74.37688493728638	pulse	0	t		0.16666667	0.0666666666667	270.0	24.0	0.0333333333333	0.1333333333333	0.0666666666667	85.51628279685974	
2	75.97683000564575	pulse	0	t		0.16666667	0.0666666666667	270.0	24.0	0.0333333333333	0.1333333333333	0.0666666666667	87.11622786521912	
2	76.68981194496155	response	0	e		0.16666667	0.0666666666667	270.0	24.0	0.0333333333333	0.1333333333333	0.0666666666667	87.82920980453491	
2	77.57772088050842	pulse	0	t		0.16666667	0.0666666666667	270.0	24.0	0.0333333333333	0.1333333333333	0.0666666666667	88.71711874008179	
2	79.17759990692139	pulse	0	t		0.16666667	0.0666666666667	270.0	24.0	0.0333333333333	0.1333333333333	0.0666666666667	90.31699776649475	
3	79.19944095611572	stim	0		0	0.16666667	0.0666666666667	0.0	48.0	0.0333333333333	0.1333333333333	0.0666666666667	90.33883881568909	23.999958038330078
3	79.77356195449829	response	0	e		0.16666667	0.0666666666667	0.0	48.0	0.0333333333333	0.1333333333333	0.0666666666667	90.91295981407166	
3	80.77754306793213	pulse	0	t		0.16666667	0.0666666666667	0.0	48.0	0.0333333333333	0.1333333333333	0.0666666666667	91.9169409275055	
3	82.37742900848389	pulse	0	t		0.16666667	0.0666666666667	0.0	48.0	0.0333333333333	0.1333333333333	0.0666666666667	93.51682686805725	
3	82.53293800354004	response	0	e		0.16666667	0.0666666666667	0.0	48.0	0.0333333333333	0.1333333333333	0.0666666666667	93.6723358631134	
3	83.97730088233948	pulse	0	t		0.16666667	0.0666666666667	0.0	48.0	0.0333333333333	0.1333333333333	0.0666666666667	95.11669874191284	
3	85.57725191116333	pulse	0	t		0.16666667	0.0666666666667	0.0	48.0	0.0333333333333	0.1333333333333	0.0666666666667	96.7166497707367	
3	87.1771628856659	pulse	0	t		0.16666667	0.0666666666667	0.0	48.0	0.0333333333333	0.1333333333333	0.0666666666667	98.31656074523926	
3	88.77711606025696	pulse	0	t		0.16666667	0.0666666666667	0.0	48.0	0.0333333333333	0.1333333333333	0.0666666666667	99.91651391983032	
3	90.3649549484253	response	0	e		0.16666667	0.0666666666667	0.0	48.0	0.0333333333333	0.1333333333333	0.0666666666667	101.50435280799866	
3	90.37673497200012	pulse	0	t		0.16666667	0.0666666666667	0.0	48.0	0.0333333333333	0.1333333333333	0.0666666666667	101.51613283157349	
3	91.97680401802063	pulse	0	t		0.16666667	0.0666666666667	0.0	48.0	0.0333333333333	0.1333333333333	0.0666666666667	103.116201877594	
3	93.57775402069092	pulse	0	t		0.16666667	0.0666666666667	0.0	48.0	0.0333333333333	0.1333333333333	0.0666666666667	104.71715188026428	
3	95.17776107788086	pulse	0	t		0.16666667	0.0666666666667	0.0	48.0	0.0333333333333	0.1333333333333	0.0666666666667	106.31715893745422	
3	96.77754998207092	pulse	0	t		0.16666667	0.0666666666667	0.0	48.0	0.0333333333333	0.1333333333333	0.0666666666667	107.91694784164429	
3	96.80333805084229	response	0	e		0.16666667	0.0666666666667	0.0	48.0	0.0333333333333	0.1333333333333	0.0666666666667	107.94273591041565	
3	98.37747311592102	pulse	0	t		0.16666667	0.0666666666667	0.0	48.0	0.0333333333333	0.1333333333333	0.0666666666667	109.51687097549438	
3	99.97737908363342	pulse	0	t		0.16666667	0.0666666666667	0.0	48.0	0.0333333333333	0.1333333333333	0.0666666666667	111.11677694320679	
3	101.57727193832397	pulse	0	t		0.16666667	0.0666666666667	0.0	48.0	0.0333333333333	0.1333333333333	0.0666666666667	112.71666979789734	
3	103.17719292640686	pulse	0	t		0.16666667	0.0666666666667	0.0	48.0	0.0333333333333	0.1333333333333	0.0666666666667	114.31659078598022	
4	103.1993989944458	stim	0		0	-1.0	1.0	-1.0	72.0	0.0333333333333	0.1333333333333	0.0666666666667	114.33879685401917	16.008333921432495
4	104.78287696838379	pulse	0	t		-1.0	1.0	-1.0	72.0	0.0333333333333	0.1333333333333	0.0666666666667	115.92227482795715	
4	106.38272190093994	pulse	0	t		-1.0	1.0	-1.0	72.0	0.0333333333333	0.1333333333333	0.0666666666667	117.5221197605133	
4	107.98284196853638	pulse	0	t		-1.0	1.0	-1.0	72.0	0.0333333333333	0.1333333333333	0.0666666666667	119.12223982810974	
4	109.02623009681702	response	0	e		-1.0	1.0	-1.0	72.0	0.0333333333333	0.1333333333333	0.0666666666667	120.16562795639038	
4	109.58293390274048	pulse	0	t		-1.0	1.0	-1.0	72.0	0.0333333333333	0.1333333333333	0.0666666666667	120.72233176231384	
4	111.18281388282776	pulse	0	t		-1.0	1.0	-1.0	72.0	0.0333333333333	0.1333333333333	0.0666666666667	122.32221174240112	
4	112.78276705741882	pulse	0	t		-1.0	1.0	-1.0	72.0	0.0333333333333	0.1333333333333	0.0666666666667	123.92216491699219	
4	113.29948711395264	response	0	e		-1.0	1.0	-1.0	72.0	0.0333333333333	0.1333333333333	0.0666666666667	124.438884973526	
4	114.38283491134644	pulse	0	t		-1.0	1.0	-1.0	72.0	0.0333333333333	0.1333333333333	0.0666666666667	125.5222327709198	
4	115.98289394378662	pulse	0	t		-1.0	1.0	-1.0	72.0	0.0333333333333	0.1333333333333	0.0666666666667	127.12229180335999	
4	117.58275389671326	pulse	0	t		-1.0	1.0	-1.0	72.0	0.0333333333333	0.1333333333333	0.0666666666667	128.72215175628662	
4	118.37439298629761	response	0	e		-1.0	1.0	-1.0	72.0	0.0333333333333	0.1333333333333	0.0666666666667	129.51379084587097	
4	119.18274092674255	pulse	0	t		-1.0	1.0	-1.0	72.0	0.0333333333333	0.1333333333333	0.0666666666667	130.32213878631592	
5	119.2077329158783	stim	0		0	0.16666667	0.0666666666667	90.0	88.0	0.0333333333333	0.1333333333333	0.0666666666667	130.34713077545166	23.991456031799316
5	120.77728509902954	pulse	0	t		0.16666667	0.0666666666667	90.0	88.0	0.0333333333333	0.1333333333333	0.0666666666667	131.9166829586029	
5	122.37709093093872	pulse	0	t		0.16666667	0.0666666666667	90.0	88.0	0.0333333333333	0.1333333333333	0.0666666666667	133.51648879051208	
5	123.10907697677612	response	0	e		0.16666667	0.0666666666667	90.0	88.0	0.0333333333333	0.1333333333333	0.0666666666667	134.2484748363495	
5	123.97698307037354	pulse	0	t		0.16666667	0.0666666666667	90.0	88.0	0.0333333333333	0.1333333333333	0.0666666666667	135.1163809299469	
5	125.57773494720459	pulse	0	t		0.16666667	0.0666666666667	90.0	88.0	0.0333333333333	0.1333333333333	0.0666666666667	136.71713280677795	
5	126.42068004608154	response	0	e		0.16666667	0.0666666666667	90.0	88.0	0.0333333333333	0.1333333333333	0.0666666666667	137.5600779056549	
5	127.17772102355957	pulse	0	t		0.16666667	0.0666666666667	90.0	88.0	0.0333333333333	0.1333333333333	0.0666666666667	138.31711888313293	
5	128.77760791778564	pulse	0	t		0.16666667	0.0666666666667	90.0	88.0	0.0333333333333	0.1333333333333	0.0666666666667	139.917005777359	
5	129.82855892181396	response	0	e		0.16666667	0.0666666666667	90.0	88.0	0.0333333333333	0.1333333333333	0.0666666666667	140.96795678138733	
5	130.37749791145325	pulse	0	t		0.16666667	0.0666666666667	90.0	88.0	0.0333333333333	0.1333333333333	0.0666666666667	141.5168957710266	
5	131.97743701934814	pulse	0	t		0.16666667	0.0666666666667	90.0	88.0	0.0333333333333	0.1333333333333	0.0666666666667	143.1168348789215	
5	133.57735991477966	pulse	0	t		0.16666667	0.0666666666667	90.0	88.0	0.0333333333333	0.1333333333333	0.0666666666667	144.71675777435303	
5	133.63711404800415	response	0	e		0.16666667	0.0666666666667	90.0	88.0	0.0333333333333	0.1333333333333	0.0666666666667	144.77651190757751	
5	135.17724108695984	pulse	0	t		0.16666667	0.0666666666667	90.0	88.0	0.0333333333333	0.1333333333333	0.0666666666667	146.3166389465332	
5	136.3620901107788	response	0	e		0.16666667	0.0666666666667	90.0	88.0	0.0333333333333	0.1333333333333	0.0666666666667	147.50148797035217	
5	136.77706789970398	pulse	0	t		0.16666667	0.0666666666667	90.0	88.0	0.0333333333333	0.1333333333333	0.0666666666667	147.91646575927734	
5	138.3769850730896	pulse	0	t		0.16666667	0.0666666666667	90.0	88.0	0.0333333333333	0.1333333333333	0.0666666666667	149.51638293266296	
5	139.28991603851318	response	0	e		0.16666667	0.0666666666667	90.0	88.0	0.0333333333333	0.1333333333333	0.0666666666667	150.42931389808655	
5	139.97686505317688	pulse	0	t		0.16666667	0.0666666666667	90.0	88.0	0.0333333333333	0.1333333333333	0.0666666666667	151.11626291275024	
5	141.57786107063293	pulse	0	t		0.16666667	0.0666666666667	90.0	88.0	0.0333333333333	0.1333333333333	0.0666666666667	152.7172589302063	
5	143.17779088020325	pulse	0	t		0.16666667	0.0666666666667	90.0	88.0	0.0333333333333	0.1333333333333	0.0666666666667	154.3171887397766	
6	143.1991889476776	stim	0		0	0.16666667	0.0666666666667	180.0	112.0	0.0333333333333	0.1333333333333	0.0666666666667	154.33858680725098	23.99991202354431
6	144.77771306037903	pulse	0	t		0.16666667	0.0666666666667	180.0	112.0	0.0333333333333	0.1333333333333	0.0666666666667	155.9171109199524	
6	146.37754201889038	pulse	0	t		0.16666667	0.0666666666667	180.0	112.0	0.0333333333333	0.1333333333333	0.0666666666667	157.51693987846375	
6	147.9774351119995	pulse	0	t		0.16666667	0.0666666666667	180.0	112.0	0.0333333333333	0.1333333333333	0.0666666666667	159.11683297157288	
6	149.57738089561462	pulse	0	t		0.16666667	0.0666666666667	180.0	112.0	0.0333333333333	0.1333333333333	0.0666666666667	160.716778755188	
6	151.17728400230408	pulse	0	t		0.16666667	0.0666666666667	180.0	112.0	0.0333333333333	0.1333333333333	0.0666666666667	162.31668186187744	
6	151.47110295295715	response	0	e		0.16666667	0.0666666666667	180.0	112.0	0.0333333333333	0.1333333333333	0.0666666666667	162.61050081253052	
6	152.7771439552307	pulse	0	t		0.16666667	0.0666666666667	180.0	112.0	0.0333333333333	0.1333333333333	0.0666666666667	163.91654181480408	
6	154.37706899642944	pulse	0	t		0.16666667	0.0666666666667	180.0	112.0	0.0333333333333	0.1333333333333	0.0666666666667	165.5164668560028	
6	155.97695803642273	pulse	0	t		0.16666667	0.0666666666667	180.0	112.0	0.0333333333333	0.1333333333333	0.0666666666667	167.1163558959961	
6	157.57779002189636	pulse	0	t		0.16666667	0.0666666666667	180.0	112.0	0.0333333333333	0.1333333333333	0.0666666666667	168.71718788146973	
6	158.51982307434082	response	0	e		0.16666667	0.0666666666667	180.0	112.0	0.0333333333333	0.1333333333333	0.0666666666667	169.65922093391418	
6	159.17774510383606	pulse	0	t		0.16666667	0.0666666666667	180.0	112.0	0.0333333333333	0.1333333333333	0.0666666666667	170.31714296340942	
6	160.7527198791504	response	0	e		0.16666667	0.0666666666667	180.0	112.0	0.0333333333333	0.1333333333333	0.0666666666667	171.89211773872375	
6	160.7774760723114	pulse	0	t		0.16666667	0.0666666666667	180.0	112.0	0.0333333333333	0.1333333333333	0.0666666666667	171.91687393188477	
6	162.3775908946991	pulse	0	t		0.16666667	0.0666666666667	180.0	112.0	0.0333333333333	0.1333333333333	0.0666666666667	173.51698875427246	
6	163.97747588157654	pulse	0	t		0.16666667	0.0666666666667	180.0	112.0	0.0333333333333	0.1333333333333	0.0666666666667	175.1168737411499	
6	164.44037199020386	response	0	e		0.16666667	0.0666666666667	180.0	112.0	0.0333333333333	0.1333333333333	0.0666666666667	175.57976984977722	
6	165.57731294631958	pulse	0	t		0.16666667	0.0666666666667	180.0	112.0	0.0333333333333	0.1333333333333	0.0666666666667	176.71671080589294	
6	167.17725205421448	pulse	0	t		0.16666667	0.0666666666667	180.0	112.0	0.0333333333333	0.1333333333333	0.0666666666667	178.31664991378784	
7	167.19910097122192	stim	0		0	-1.0	1.0	-1.0	136.0	0.0333333333333	0.1333333333333	0.0666666666667	178.3384988307953	16.008230924606323
7	168.78253388404846	pulse	0	t		-1.0	1.0	-1.0	136.0	0.0333333333333	0.1333333333333	0.0666666666667	179.92193174362183	
7	170.38252091407776	pulse	0	t		-1.0	1.0	-1.0	136.0	0.0333333333333	0.1333333333333	0.0666666666667	181.52191877365112	
7	171.98256707191467	pulse	0	t		-1.0	1.0	-1.0	136.0	0.0333333333333	0.1333333333333	0.0666666666667	183.12196493148804	
7	173.58253288269043	pulse	0	t		-1.0	1.0	-1.0	136.0	0.0333333333333	0.1333333333333	0.0666666666667	184.7219307422638	
7	174.02420091629028	response	0	e		-1.0	1.0	-1.0	136.0	0.0333333333333	0.1333333333333	0.0666666666667	185.16359877586365	
7	175.1825098991394	pulse	0	t		-1.0	1.0	-1.0	136.0	0.0333333333333	0.1333333333333	0.0666666666667	186.32190775871277	
7	176.78244495391846	pulse	0	t		-1.0	1.0	-1.0	136.0	0.0333333333333	0.1333333333333	0.0666666666667	187.92184281349182	
7	177.87587094306946	response	0	e		-1.0	1.0	-1.0	136.0	0.0333333333333	0.1333333333333	0.0666666666667	189.01526880264282	
7	178.38254499435425	pulse	0	t		-1.0	1.0	-1.0	136.0	0.0333333333333	0.1333333333333	0.0666666666667	189.5219428539276	
7	179.98249411582947	pulse	0	t		-1.0	1.0	-1.0	136.0	0.0333333333333	0.1333333333333	0.0666666666667	191.12189197540283	
7	181.58258199691772	pulse	0	t		-1.0	1.0	-1.0	136.0	0.0333333333333	0.1333333333333	0.0666666666667	192.7219798564911	
7	183.18249106407166	pulse	0	t		-1.0	1.0	-1.0	136.0	0.0333333333333	0.1333333333333	0.0666666666667	194.32188892364502	
8	183.20733189582825	stim	0		0	-1.0	1.0	-1.0	152.0	0.0333333333333	0.1333333333333	0.0666666666667	194.3467297554016	15.999873161315918
8	183.24861407279968	response	0	e		-1.0	1.0	-1.0	152.0	0.0333333333333	0.1333333333333	0.0666666666667	194.38801193237305	
8	184.78274202346802	pulse	0	t		-1.0	1.0	-1.0	152.0	0.0333333333333	0.1333333333333	0.0666666666667	195.92213988304138	
8	186.38246989250183	pulse	0	t		-1.0	1.0	-1.0	152.0	0.0333333333333	0.1333333333333	0.0666666666667	197.5218677520752	
8	186.4574420452118	response	0	e		-1.0	1.0	-1.0	152.0	0.0333333333333	0.1333333333333	0.0666666666667	197.59683990478516	
8	187.98246908187866	pulse	0	t		-1.0	1.0	-1.0	152.0	0.0333333333333	0.1333333333333	0.0666666666667	199.12186694145203	
8	189.58242106437683	pulse	0	t		-1.0	1.0	-1.0	152.0	0.0333333333333	0.1333333333333	0.0666666666667	200.7218189239502	
8	190.207426071167	response	0	e		-1.0	1.0	-1.0	152.0	0.0333333333333	0.1333333333333	0.0666666666667	201.34682393074036	
8	191.182461977005	pulse	0	t		-1.0	1.0	-1.0	152.0	0.0333333333333	0.1333333333333	0.0666666666667	202.32185983657837	
8	192.31581687927246	response	0	e		-1.0	1.0	-1.0	152.0	0.0333333333333	0.1333333333333	0.0666666666667	203.45521473884583	
8	192.78240990638733	pulse	0	t		-1.0	1.0	-1.0	152.0	0.0333333333333	0.1333333333333	0.0666666666667	203.9218077659607	
8	194.3824861049652	pulse	0	t		-1.0	1.0	-1.0	152.0	0.0333333333333	0.1333333333333	0.0666666666667	205.52188396453857	
8	195.98237299919128	pulse	0	t		-1.0	1.0	-1.0	152.0	0.0333333333333	0.1333333333333	0.0666666666667	207.12177085876465	
8	197.58241510391235	pulse	0	t		-1.0	1.0	-1.0	152.0	0.0333333333333	0.1333333333333	0.0666666666667	208.72181296348572	
8	198.0740349292755	response	0	e		-1.0	1.0	-1.0	152.0	0.0333333333333	0.1333333333333	0.0666666666667	209.21343278884888	
8	199.18238306045532	pulse	0	t		-1.0	1.0	-1.0	152.0	0.0333333333333	0.1333333333333	0.0666666666667	210.3217809200287	
9	199.20720505714417	stim	0		0	0.16666667	0.0666666666667	180.0	168.0	0.0333333333333	0.1333333333333	0.0666666666667	210.34660291671753	23.999894857406616
9	200.77726197242737	pulse	0	t		0.16666667	0.0666666666667	180.0	168.0	0.0333333333333	0.1333333333333	0.0666666666667	211.91665983200073	
9	202.37715792655945	pulse	0	t		0.16666667	0.0666666666667	180.0	168.0	0.0333333333333	0.1333333333333	0.0666666666667	213.5165557861328	
9	203.70300698280334	response	0	e		0.16666667	0.0666666666667	180.0	168.0	0.0333333333333	0.1333333333333	0.0666666666667	214.8424048423767	
9	203.97689390182495	pulse	0	t		0.16666667	0.0666666666667	180.0	168.0	0.0333333333333	0.1333333333333	0.0666666666667	215.11629176139832	
9	205.57792806625366	pulse	0	t		0.16666667	0.0666666666667	180.0	168.0	0.0333333333333	0.1333333333333	0.0666666666667	216.71732592582703	
9	207.1778199672699	pulse	0	t		0.16666667	0.0666666666667	180.0	168.0	0.0333333333333	0.1333333333333	0.0666666666667	218.31721782684326	
9	207.94570803642273	response	0	e		0.16666667	0.0666666666667	180.0	168.0	0.0333333333333	0.1333333333333	0.0666666666667	219.0851058959961	
9	208.77768993377686	pulse	0	t		0.16666667	0.0666666666667	180.0	168.0	0.0333333333333	0.1333333333333	0.0666666666667	219.91708779335022	
9	210.24762296676636	response	0	e		0.16666667	0.0666666666667	180.0	168.0	0.0333333333333	0.1333333333333	0.0666666666667	221.38702082633972	
9	210.37747311592102	pulse	0	t		0.16666667	0.0666666666667	180.0	168.0	0.0333333333333	0.1333333333333	0.0666666666667	221.51687097549438	
9	211.9775869846344	pulse	0	t		0.16666667	0.0666666666667	180.0	168.0	0.0333333333333	0.1333333333333	0.0666666666667	223.11698484420776	
9	213.3704879283905	response	0	e		0.16666667	0.0666666666667	180.0	168.0	0.0333333333333	0.1333333333333	0.0666666666667	224.50988578796387	
9	213.5774040222168	pulse	0	t		0.16666667	0.0666666666667	180.0	168.0	0.0333333333333	0.1333333333333	0.0666666666667	224.71680188179016	
9	215.17738008499146	pulse	0	t		0.16666667	0.0666666666667	180.0	168.0	0.0333333333333	0.1333333333333	0.0666666666667	226.31677794456482	
9	216.11327600479126	response	0	e		0.16666667	0.0666666666667	180.0	168.0	0.0333333333333	0.1333333333333	0.0666666666667	227.25267386436462	
9	216.77728295326233	pulse	0	t		0.16666667	0.0666666666667	180.0	168.0	0.0333333333333	0.1333333333333	0.0666666666667	227.9166808128357	
9	218.37720799446106	pulse	0	t		0.16666667	0.0666666666667	180.0	168.0	0.0333333333333	0.1333333333333	0.0666666666667	229.51660585403442	
9	218.55404496192932	response	0	e		0.16666667	0.0666666666667	180.0	168.0	0.0333333333333	0.1333333333333	0.0666666666667	229.69344282150269	
9	219.97722697257996	pulse	0	t		0.16666667	0.0666666666667	180.0	168.0	0.0333333333333	0.1333333333333	0.0666666666667	231.11662483215332	
9	221.57805109024048	pulse	0	t		0.16666667	0.0666666666667	180.0	168.0	0.0333333333333	0.1333333333333	0.0666666666667	232.71744894981384	
9	221.75191593170166	response	0	e		0.16666667	0.0666666666667	180.0	168.0	0.0333333333333	0.1333333333333	0.0666666666667	232.89131379127502	
9	223.17795395851135	pulse	0	t		0.16666667	0.0666666666667	180.0	168.0	0.0333333333333	0.1333333333333	0.0666666666667	234.31735181808472	
10	223.20709991455078	stim	0		0	0.16666667	0.0666666666667	90.0	192.0	0.0333333333333	0.1333333333333	0.0666666666667	234.34649777412415	23.999819040298462
10	224.63190698623657	response	0	e		0.16666667	0.0666666666667	90.0	192.0	0.0333333333333	0.1333333333333	0.0666666666667	235.77130484580994	
10	224.77774500846863	pulse	0	t		0.16666667	0.0666666666667	90.0	192.0	0.0333333333333	0.1333333333333	0.0666666666667	235.917142868042	
10	226.3777039051056	pulse	0	t		0.16666667	0.0666666666667	90.0	192.0	0.0333333333333	0.1333333333333	0.0666666666667	237.51710176467896	
10	227.97761702537537	pulse	0	t		0.16666667	0.0666666666667	90.0	192.0	0.0333333333333	0.1333333333333	0.0666666666667	239.11701488494873	
10	229.5775270462036	pulse	0	t		0.16666667	0.0666666666667	90.0	192.0	0.0333333333333	0.1333333333333	0.0666666666667	240.71692490577698	
10	231.17744898796082	pulse	0	t		0.16666667	0.0666666666667	90.0	192.0	0.0333333333333	0.1333333333333	0.0666666666667	242.31684684753418	
10	231.34728503227234	response	0	e		0.16666667	0.0666666666667	90.0	192.0	0.0333333333333	0.1333333333333	0.0666666666667	242.4866828918457	
10	232.77725911140442	pulse	0	t		0.16666667	0.0666666666667	90.0	192.0	0.0333333333333	0.1333333333333	0.0666666666667	243.91665697097778	
10	234.3771789073944	pulse	0	t		0.16666667	0.0666666666667	90.0	192.0	0.0333333333333	0.1333333333333	0.0666666666667	245.51657676696777	
10	235.97707390785217	pulse	0	t		0.16666667	0.0666666666667	90.0	192.0	0.0333333333333	0.1333333333333	0.0666666666667	247.11647176742554	
10	236.57295393943787	response	0	e		0.16666667	0.0666666666667	90.0	192.0	0.0333333333333	0.1333333333333	0.0666666666667	247.71235179901123	
10	237.57795596122742	pulse	0	t		0.16666667	0.0666666666667	90.0	192.0	0.0333333333333	0.1333333333333	0.0666666666667	248.71735382080078	
10	238.831955909729	response	0	e		0.16666667	0.0666666666667	90.0	192.0	0.0333333333333	0.1333333333333	0.0666666666667	249.97135376930237	
10	239.17778205871582	pulse	0	t		0.16666667	0.0666666666667	90.0	192.0	0.0333333333333	0.1333333333333	0.0666666666667	250.31717991828918	
10	240.7778069972992	pulse	0	t		0.16666667	0.0666666666667	90.0	192.0	0.0333333333333	0.1333333333333	0.0666666666667	251.91720485687256	
10	242.37774896621704	pulse	0	t		0.16666667	0.0666666666667	90.0	192.0	0.0333333333333	0.1333333333333	0.0666666666667	253.5171468257904	
10	243.97759008407593	pulse	0	t		0.16666667	0.0666666666667	90.0	192.0	0.0333333333333	0.1333333333333	0.0666666666667	255.1169879436493	
10	245.09855794906616	response	0	e		0.16666667	0.0666666666667	90.0	192.0	0.0333333333333	0.1333333333333	0.0666666666667	256.2379558086395	
10	245.57745790481567	pulse	0	t		0.16666667	0.0666666666667	90.0	192.0	0.0333333333333	0.1333333333333	0.0666666666667	256.71685576438904	
10	247.177472114563	pulse	0	t		0.16666667	0.0666666666667	90.0	192.0	0.0333333333333	0.1333333333333	0.0666666666667	258.31686997413635	
11	247.20691895484924	stim	0		0	-1.0	1.0	-1.0	216.0	0.0333333333333	0.1333333333333	0.0666666666667	258.3463168144226	16.000077962875366
11	248.3321828842163	response	0	e		-1.0	1.0	-1.0	216.0	0.0333333333333	0.1333333333333	0.0666666666667	259.4715807437897	
11	248.7821168899536	pulse	0	t		-1.0	1.0	-1.0	216.0	0.0333333333333	0.1333333333333	0.0666666666667	259.921514749527	
11	250.38216710090637	pulse	0	t		-1.0	1.0	-1.0	216.0	0.0333333333333	0.1333333333333	0.0666666666667	261.52156496047974	
11	251.85892009735107	response	0	e		-1.0	1.0	-1.0	216.0	0.0333333333333	0.1333333333333	0.0666666666667	262.99831795692444	
11	251.9821059703827	pulse	0	t		-1.0	1.0	-1.0	216.0	0.0333333333333	0.1333333333333	0.0666666666667	263.12150382995605	
11	253.58210110664368	pulse	0	t		-1.0	1.0	-1.0	216.0	0.0333333333333	0.1333333333333	0.0666666666667	264.72149896621704	
11	254.7153708934784	response	0	e		-1.0	1.0	-1.0	216.0	0.0333333333333	0.1333333333333	0.0666666666667	265.85476875305176	
11	255.1820809841156	pulse	0	t		-1.0	1.0	-1.0	216.0	0.0333333333333	0.1333333333333	0.0666666666667	266.32147884368896	
11	256.7820670604706	pulse	0	t		-1.0	1.0	-1.0	216.0	0.0333333333333	0.1333333333333	0.0666666666667	267.92146492004395	
11	258.3821198940277	pulse	0	t		-1.0	1.0	-1.0	216.0	0.0333333333333	0.1333333333333	0.0666666666667	269.5215177536011	
11	259.98210406303406	pulse	0	t		-1.0	1.0	-1.0	216.0	0.0333333333333	0.1333333333333	0.0666666666667	271.1215019226074	
11	260.08386492729187	response	0	e		-1.0	1.0	-1.0	216.0	0.0333333333333	0.1333333333333	0.0666666666667	271.22326278686523	
11	261.5820369720459	pulse	0	t		-1.0	1.0	-1.0	216.0	0.0333333333333	0.1333333333333	0.0666666666667	272.72143483161926	
11	263.1819748878479	pulse	0	t		-1.0	1.0	-1.0	216.0	0.0333333333333	0.1333333333333	0.0666666666667	274.32137274742126	
12	263.2069969177246	stim	0		0	0.16666667	0.0666666666667	0.0	232.0	0.0333333333333	0.1333333333333	0.0666666666667	274.346394777298	23.9914710521698
12	264.5583701133728	response	0	e		0.16666667	0.0666666666667	0.0	232.0	0.0333333333333	0.1333333333333	0.0666666666667	275.69776797294617	
12	264.7772650718689	pulse	0	t		0.16666667	0.0666666666667	0.0	232.0	0.0333333333333	0.1333333333333	0.0666666666667	275.91666293144226	
12	266.37729001045227	pulse	0	t		0.16666667	0.0666666666667	0.0	232.0	0.0333333333333	0.1333333333333	0.0666666666667	277.51668787002563	
12	266.5983130931854	response	0	e		0.16666667	0.0666666666667	0.0	232.0	0.0333333333333	0.1333333333333	0.0666666666667	277.7377109527588	
12	267.9771831035614	pulse	0	t		0.16666667	0.0666666666667	0.0	232.0	0.0333333333333	0.1333333333333	0.0666666666667	279.11658096313477	
12	269.57812309265137	pulse	0	t		0.16666667	0.0666666666667	0.0	232.0	0.0333333333333	0.1333333333333	0.0666666666667	280.71752095222473	
12	271.1780209541321	pulse	0	t		0.16666667	0.0666666666667	0.0	232.0	0.0333333333333	0.1333333333333	0.0666666666667	282.31741881370544	
12	271.74090909957886	response	0	e		0.16666667	0.0666666666667	0.0	232.0	0.0333333333333	0.1333333333333	0.0666666666667	282.8803069591522	
12	272.7778329849243	pulse	0	t		0.16666667	0.0666666666667	0.0	232.0	0.0333333333333	0.1333333333333	0.0666666666667	283.9172308444977	
12	274.37783098220825	pulse	0	t		0.16666667	0.0666666666667	0.0	232.0	0.0333333333333	0.1333333333333	0.0666666666667	285.5172288417816	
12	274.6946940422058	response	0	e		0.16666667	0.0666666666667	0.0	232.0	0.0333333333333	0.1333333333333	0.0666666666667	285.8340919017792	
12	275.97762393951416	pulse	0	t		0.16666667	0.0666666666667	0.0	232.0	0.0333333333333	0.1333333333333	0.0666666666667	287.1170217990875	
12	277.57752203941345	pulse	0	t		0.16666667	0.0666666666667	0.0	232.0	0.0333333333333	0.1333333333333	0.0666666666667	288.7169198989868	
12	277.7563500404358	response	0	e		0.16666667	0.0666666666667	0.0	232.0	0.0333333333333	0.1333333333333	0.0666666666667	288.89574790000916	
12	279.17741799354553	pulse	0	t		0.16666667	0.0666666666667	0.0	232.0	0.0333333333333	0.1333333333333	0.0666666666667	290.3168158531189	
12	280.70937395095825	response	0	e		0.16666667	0.0666666666667	0.0	232.0	0.0333333333333	0.1333333333333	0.0666666666667	291.8487718105316	
12	280.7771589756012	pulse	0	t		0.16666667	0.0666666666667	0.0	232.0	0.0333333333333	0.1333333333333	0.0666666666667	291.91655683517456	
12	282.377268075943	pulse	0	t		0.16666667	0.0666666666667	0.0	232.0	0.0333333333333	0.1333333333333	0.0666666666667	293.51666593551636	
12	282.83615708351135	response	0	e		0.16666667	0.0666666666667	0.0	232.0	0.0333333333333	0.1333333333333	0.0666666666667	293.9755549430847	
12	283.97715497016907	pulse	0	t		0.16666667	0.0666666666667	0.0	232.0	0.0333333333333	0.1333333333333	0.0666666666667	295.11655282974243	
12	285.57811307907104	pulse	0	t		0.16666667	0.0666666666667	0.0	232.0	0.0333333333333	0.1333333333333	0.0666666666667	296.7175109386444	
12	287.17793107032776	pulse	0	t		0.16666667	0.0666666666667	0.0	232.0	0.0333333333333	0.1333333333333	0.0666666666667	298.3173289299011	
13	287.1984679698944	stim	0		0	0.16666667	0.0666666666667	270.0	256.0	0.0333333333333	0.1333333333333	0.0666666666667	298.3378658294678	24.00000810623169
13	287.89490509033203	response	0	e		0.16666667	0.0666666666667	270.0	256.0	0.0333333333333	0.1333333333333	0.0666666666667	299.0343029499054	
13	288.7778549194336	pulse	0	t		0.16666667	0.0666666666667	270.0	256.0	0.0333333333333	0.1333333333333	0.0666666666667	299.91725277900696	
13	290.3777439594269	pulse	0	t		0.16666667	0.0666666666667	270.0	256.0	0.0333333333333	0.1333333333333	0.0666666666667	301.51714181900024	
13	290.8737280368805	response	0	e		0.16666667	0.0666666666667	270.0	256.0	0.0333333333333	0.1333333333333	0.0666666666667	302.01312589645386	
13	291.97768807411194	pulse	0	t		0.16666667	0.0666666666667	270.0	256.0	0.0333333333333	0.1333333333333	0.0666666666667	303.1170859336853	
13	293.2995910644531	response	0	e		0.16666667	0.0666666666667	270.0	256.0	0.0333333333333	0.1333333333333	0.0666666666667	304.4389889240265	
13	293.5774509906769	pulse	0	t		0.16666667	0.0666666666667	270.0	256.0	0.0333333333333	0.1333333333333	0.0666666666667	304.71684885025024	
13	295.17753505706787	pulse	0	t		0.16666667	0.0666666666667	270.0	256.0	0.0333333333333	0.1333333333333	0.0666666666667	306.31693291664124	
13	296.77746200561523	pulse	0	t		0.16666667	0.0666666666667	270.0	256.0	0.0333333333333	0.1333333333333	0.0666666666667	307.9168598651886	
13	298.3023090362549	response	0	e		0.16666667	0.0666666666667	270.0	256.0	0.0333333333333	0.1333333333333	0.0666666666667	309.44170689582825	
13	298.3770899772644	pulse	0	t		0.16666667	0.0666666666667	270.0	256.0	0.0333333333333	0.1333333333333	0.0666666666667	309.51648783683777	
13	299.9772229194641	pulse	0	t		0.16666667	0.0666666666667	270.0	256.0	0.0333333333333	0.1333333333333	0.0666666666667	311.1166207790375	
13	301.57818698883057	pulse	0	t		0.16666667	0.0666666666667	270.0	256.0	0.0333333333333	0.1333333333333	0.0666666666667	312.71758484840393	
13	302.33186197280884	response	0	e		0.16666667	0.0666666666667	270.0	256.0	0.0333333333333	0.1333333333333	0.0666666666667	313.4712598323822	
13	303.17796993255615	pulse	0	t		0.16666667	0.0666666666667	270.0	256.0	0.0333333333333	0.1333333333333	0.0666666666667	314.3173677921295	
13	304.7779788970947	pulse	0	t		0.16666667	0.0666666666667	270.0	256.0	0.0333333333333	0.1333333333333	0.0666666666667	315.9173767566681	
13	306.3777780532837	pulse	0	t		0.16666667	0.0666666666667	270.0	256.0	0.0333333333333	0.1333333333333	0.0666666666667	317.51717591285706	
13	307.97769594192505	pulse	0	t		0.16666667	0.0666666666667	270.0	256.0	0.0333333333333	0.1333333333333	0.0666666666667	319.1170938014984	
13	309.5775980949402	pulse	0	t		0.16666667	0.0666666666667	270.0	256.0	0.0333333333333	0.1333333333333	0.0666666666667	320.71699595451355	
13	311.17759799957275	pulse	0	t		0.16666667	0.0666666666667	270.0	256.0	0.0333333333333	0.1333333333333	0.0666666666667	322.3169958591461	
14	311.1984760761261	stim	0		0								322.33787393569946	24.358120918273926
14	312.68182492256165	response	0	e									323.821222782135	
14	312.7818329334259	pulse	0	t									323.92123079299927	
14	314.3817660808563	pulse	0	t									325.5211639404297	
14	315.9818239212036	pulse	0	t									327.121221780777	
14	316.68180799484253	response	0	e									327.8212058544159	
14	317.58190393447876	pulse	0	t									328.7213017940521	
14	319.1817960739136	pulse	0	t									330.32119393348694	
14	320.78179907798767	pulse	0	t									331.92119693756104	
14	321.3835690021515	response	0	e									332.52296686172485	
14	322.3817939758301	pulse	0	t									333.52119183540344	
14	323.35694789886475	response	0	e									334.4963457584381	
14	323.98194003105164	pulse	0	t									335.121337890625	
14	325.5819311141968	pulse	0	t									336.72132897377014	
14	327.18177008628845	pulse	0	t									338.3211679458618	
14	328.7816779613495	pulse	0	t									339.92107582092285	
14	329.5001380443573	response	0	e									340.63953590393066	
14	330.38185691833496	pulse	0	t									341.5212547779083	
14	331.7567250728607	response	0	e									342.8961229324341	
14	331.98173689842224	pulse	0	t									343.1211347579956	
14	333.5817279815674	pulse	0	t									344.72112584114075	
14	334.85668897628784	response	0	e									345.9960868358612	
14	335.18169498443604	pulse	0	t									346.3210928440094	
