trial_nr	onset	event_type	phase	response	nr_frames	bar_width	bar_refresh_time	bar_direction	start_time	bar_blank_duration	bar_blank_interval	bg_stim_refresh_time	onset_abs	duration
0	0.15907788276672363	stim	0		0								22.563235998153687	0.19082403182983398
0	0.34186792373657227	response	0	space									22.746026039123535	
1	0.3499019145965576	stim	0		0								22.75406002998352	34.96641397476196
1	35.304428815841675	pulse	0	t									57.70858693122864	
1	35.31631588935852	stim	1		0								57.72047400474548	0.0006160736083984375
1	35.31693196296692	stim	0		0								57.72109007835388	24.00755786895752
1	36.89982795715332	pulse	0	t									59.30398607254028	
1	38.499881982803345	pulse	0	t									60.90404009819031	
1	39.64977478981018	response	0	e									62.053932905197144	
1	40.09976601600647	pulse	0	t									62.50392413139343	
1	41.69987392425537	pulse	0	t									64.10403203964233	
1	42.79986596107483	response	0	e									65.20402407646179	
1	43.29976296424866	pulse	0	t									65.70392107963562	
1	44.8997859954834	pulse	0	t									67.30394411087036	
1	46.499809980392456	pulse	0	t									68.90396809577942	
1	48.099846839904785	pulse	0	t									70.50400495529175	
1	49.51645088195801	response	0	e									71.92060899734497	
1	49.69988393783569	pulse	0	t									72.10404205322266	
1	51.29984092712402	pulse	0	t									73.70399904251099	
1	52.899823904037476	pulse	0	t									75.30398201942444	
1	54.50003385543823	pulse	0	t									76.9041919708252	
1	55.52475380897522	response	0	e									77.92891192436218	
1	56.09964895248413	pulse	0	t									78.5038070678711	
1	57.69975185394287	pulse	0	t									80.10390996932983	
1	57.974753856658936	response	0	e									80.3789119720459	
1	59.29976987838745	pulse	0	t									81.70392799377441	
2	59.32448983192444	stim	0		0	0.16666667	0.0666666666667	270.0	24.0	0.0333333333333	0.1333333333333	0.0666666666667	81.7286479473114	23.99168300628662
2	60.89838981628418	pulse	0	t		0.16666667	0.0666666666667	270.0	24.0	0.0333333333333	0.1333333333333	0.0666666666667	83.30254793167114	
2	62.4993999004364	pulse	0	t		0.16666667	0.0666666666667	270.0	24.0	0.0333333333333	0.1333333333333	0.0666666666667	84.90355801582336	
2	64.09915590286255	pulse	0	t		0.16666667	0.0666666666667	270.0	24.0	0.0333333333333	0.1333333333333	0.0666666666667	86.50331401824951	
2	65.69907093048096	pulse	0	t		0.16666667	0.0666666666667	270.0	24.0	0.0333333333333	0.1333333333333	0.0666666666667	88.10322904586792	
2	67.29902601242065	pulse	0	t		0.16666667	0.0666666666667	270.0	24.0	0.0333333333333	0.1333333333333	0.0666666666667	89.70318412780762	
2	67.62196278572083	response	0	e		0.16666667	0.0666666666667	270.0	24.0	0.0333333333333	0.1333333333333	0.0666666666667	90.02612090110779	
2	68.8988687992096	pulse	0	t		0.16666667	0.0666666666667	270.0	24.0	0.0333333333333	0.1333333333333	0.0666666666667	91.30302691459656	
2	70.49890494346619	pulse	0	t		0.16666667	0.0666666666667	270.0	24.0	0.0333333333333	0.1333333333333	0.0666666666667	92.90306305885315	
2	72.09875178337097	pulse	0	t		0.16666667	0.0666666666667	270.0	24.0	0.0333333333333	0.1333333333333	0.0666666666667	94.50290989875793	
2	73.69866180419922	pulse	0	t		0.16666667	0.0666666666667	270.0	24.0	0.0333333333333	0.1333333333333	0.0666666666667	96.10281991958618	
2	73.91223382949829	response	0	e		0.16666667	0.0666666666667	270.0	24.0	0.0333333333333	0.1333333333333	0.0666666666667	96.31639194488525	
2	75.29850196838379	pulse	0	t		0.16666667	0.0666666666667	270.0	24.0	0.0333333333333	0.1333333333333	0.0666666666667	97.70266008377075	
2	76.89844298362732	pulse	0	t		0.16666667	0.0666666666667	270.0	24.0	0.0333333333333	0.1333333333333	0.0666666666667	99.30260109901428	
2	78.1923418045044	response	0	e		0.16666667	0.0666666666667	270.0	24.0	0.0333333333333	0.1333333333333	0.0666666666667	100.59649991989136	
2	78.49918484687805	pulse	0	t		0.16666667	0.0666666666667	270.0	24.0	0.0333333333333	0.1333333333333	0.0666666666667	100.90334296226501	
2	80.09930396080017	pulse	0	t		0.16666667	0.0666666666667	270.0	24.0	0.0333333333333	0.1333333333333	0.0666666666667	102.50346207618713	
2	81.69911098480225	pulse	0	t		0.16666667	0.0666666666667	270.0	24.0	0.0333333333333	0.1333333333333	0.0666666666667	104.10326910018921	
2	83.29907298088074	pulse	0	t		0.16666667	0.0666666666667	270.0	24.0	0.0333333333333	0.1333333333333	0.0666666666667	105.7032310962677	
3	83.31617283821106	stim	0		0	0.16666667	0.0666666666667	0.0	48.0	0.0333333333333	0.1333333333333	0.0666666666667	105.72033095359802	23.999897003173828
3	84.89888191223145	pulse	0	t		0.16666667	0.0666666666667	0.0	48.0	0.0333333333333	0.1333333333333	0.0666666666667	107.30304002761841	
3	84.96077799797058	response	0	e		0.16666667	0.0666666666667	0.0	48.0	0.0333333333333	0.1333333333333	0.0666666666667	107.36493611335754	
3	86.49880480766296	pulse	0	t		0.16666667	0.0666666666667	0.0	48.0	0.0333333333333	0.1333333333333	0.0666666666667	108.90296292304993	
3	87.4728000164032	response	0	e		0.16666667	0.0666666666667	0.0	48.0	0.0333333333333	0.1333333333333	0.0666666666667	109.87695813179016	
3	88.09875679016113	pulse	0	t		0.16666667	0.0666666666667	0.0	48.0	0.0333333333333	0.1333333333333	0.0666666666667	110.5029149055481	
3	89.69870400428772	pulse	0	t		0.16666667	0.0666666666667	0.0	48.0	0.0333333333333	0.1333333333333	0.0666666666667	112.10286211967468	
3	90.42162799835205	response	0	e		0.16666667	0.0666666666667	0.0	48.0	0.0333333333333	0.1333333333333	0.0666666666667	112.82578611373901	
3	91.29851388931274	pulse	0	t		0.16666667	0.0666666666667	0.0	48.0	0.0333333333333	0.1333333333333	0.0666666666667	113.7026720046997	
3	92.89844799041748	pulse	0	t		0.16666667	0.0666666666667	0.0	48.0	0.0333333333333	0.1333333333333	0.0666666666667	115.30260610580444	
3	94.4993908405304	pulse	0	t		0.16666667	0.0666666666667	0.0	48.0	0.0333333333333	0.1333333333333	0.0666666666667	116.90354895591736	
3	96.09925389289856	pulse	0	t		0.16666667	0.0666666666667	0.0	48.0	0.0333333333333	0.1333333333333	0.0666666666667	118.50341200828552	
3	97.69928193092346	pulse	0	t		0.16666667	0.0666666666667	0.0	48.0	0.0333333333333	0.1333333333333	0.0666666666667	120.10344004631042	
3	99.29922080039978	pulse	0	t		0.16666667	0.0666666666667	0.0	48.0	0.0333333333333	0.1333333333333	0.0666666666667	121.70337891578674	
3	99.7680549621582	response	0	e		0.16666667	0.0666666666667	0.0	48.0	0.0333333333333	0.1333333333333	0.0666666666667	122.17221307754517	
3	100.89904880523682	pulse	0	t		0.16666667	0.0666666666667	0.0	48.0	0.0333333333333	0.1333333333333	0.0666666666667	123.30320692062378	
3	101.90588593482971	response	0	e		0.16666667	0.0666666666667	0.0	48.0	0.0333333333333	0.1333333333333	0.0666666666667	124.31004405021667	
3	102.49886083602905	pulse	0	t		0.16666667	0.0666666666667	0.0	48.0	0.0333333333333	0.1333333333333	0.0666666666667	124.90301895141602	
3	104.09873700141907	pulse	0	t		0.16666667	0.0666666666667	0.0	48.0	0.0333333333333	0.1333333333333	0.0666666666667	126.50289511680603	
3	105.69860482215881	pulse	0	t		0.16666667	0.0666666666667	0.0	48.0	0.0333333333333	0.1333333333333	0.0666666666667	128.10276293754578	
3	106.20062398910522	response	0	e		0.16666667	0.0666666666667	0.0	48.0	0.0333333333333	0.1333333333333	0.0666666666667	128.6047821044922	
3	107.29856395721436	pulse	0	t		0.16666667	0.0666666666667	0.0	48.0	0.0333333333333	0.1333333333333	0.0666666666667	129.70272207260132	
4	107.31606984138489	stim	0		0	-1.0	1.0	-1.0	72.0	0.0333333333333	0.1333333333333	0.0666666666667	129.72022795677185	16.008159160614014
4	108.89918494224548	pulse	0	t		-1.0	1.0	-1.0	72.0	0.0333333333333	0.1333333333333	0.0666666666667	131.30334305763245	
4	109.04116487503052	response	0	e		-1.0	1.0	-1.0	72.0	0.0333333333333	0.1333333333333	0.0666666666667	131.44532299041748	
4	110.4994888305664	pulse	0	t		-1.0	1.0	-1.0	72.0	0.0333333333333	0.1333333333333	0.0666666666667	132.90364694595337	
4	111.69963884353638	response	0	e		-1.0	1.0	-1.0	72.0	0.0333333333333	0.1333333333333	0.0666666666667	134.10379695892334	
4	112.09945297241211	pulse	0	t		-1.0	1.0	-1.0	72.0	0.0333333333333	0.1333333333333	0.0666666666667	134.50361108779907	
4	113.699453830719	pulse	0	t		-1.0	1.0	-1.0	72.0	0.0333333333333	0.1333333333333	0.0666666666667	136.10361194610596	
4	115.29935598373413	pulse	0	t		-1.0	1.0	-1.0	72.0	0.0333333333333	0.1333333333333	0.0666666666667	137.7035140991211	
4	116.89953184127808	pulse	0	t		-1.0	1.0	-1.0	72.0	0.0333333333333	0.1333333333333	0.0666666666667	139.30368995666504	
4	118.49939894676208	pulse	0	t		-1.0	1.0	-1.0	72.0	0.0333333333333	0.1333333333333	0.0666666666667	140.90355706214905	
4	120.09938192367554	pulse	0	t		-1.0	1.0	-1.0	72.0	0.0333333333333	0.1333333333333	0.0666666666667	142.5035400390625	
4	121.69940280914307	pulse	0	t		-1.0	1.0	-1.0	72.0	0.0333333333333	0.1333333333333	0.0666666666667	144.10356092453003	
4	122.44105195999146	response	0	e		-1.0	1.0	-1.0	72.0	0.0333333333333	0.1333333333333	0.0666666666667	144.84521007537842	
4	123.2994658946991	pulse	0	t		-1.0	1.0	-1.0	72.0	0.0333333333333	0.1333333333333	0.0666666666667	145.70362401008606	
5	123.3242290019989	stim	0		0	0.16666667	0.0666666666667	90.0	88.0	0.0333333333333	0.1333333333333	0.0666666666667	145.72838711738586	23.991658926010132
5	124.89857578277588	pulse	0	t		0.16666667	0.0666666666667	90.0	88.0	0.0333333333333	0.1333333333333	0.0666666666667	147.30273389816284	
5	126.499440908432	pulse	0	t		0.16666667	0.0666666666667	90.0	88.0	0.0333333333333	0.1333333333333	0.0666666666667	148.90359902381897	
5	128.09934282302856	pulse	0	t		0.16666667	0.0666666666667	90.0	88.0	0.0333333333333	0.1333333333333	0.0666666666667	150.50350093841553	
5	129.69921398162842	pulse	0	t		0.16666667	0.0666666666667	90.0	88.0	0.0333333333333	0.1333333333333	0.0666666666667	152.10337209701538	
5	130.33617091178894	response	0	e		0.16666667	0.0666666666667	90.0	88.0	0.0333333333333	0.1333333333333	0.0666666666667	152.7403290271759	
5	131.29917693138123	pulse	0	t		0.16666667	0.0666666666667	90.0	88.0	0.0333333333333	0.1333333333333	0.0666666666667	153.7033350467682	
5	132.8990499973297	pulse	0	t		0.16666667	0.0666666666667	90.0	88.0	0.0333333333333	0.1333333333333	0.0666666666667	155.30320811271667	
5	134.49895882606506	pulse	0	t		0.16666667	0.0666666666667	90.0	88.0	0.0333333333333	0.1333333333333	0.0666666666667	156.90311694145203	
5	136.09885001182556	pulse	0	t		0.16666667	0.0666666666667	90.0	88.0	0.0333333333333	0.1333333333333	0.0666666666667	158.50300812721252	
5	137.69870281219482	pulse	0	t		0.16666667	0.0666666666667	90.0	88.0	0.0333333333333	0.1333333333333	0.0666666666667	160.1028609275818	
5	139.29863691329956	pulse	0	t		0.16666667	0.0666666666667	90.0	88.0	0.0333333333333	0.1333333333333	0.0666666666667	161.70279502868652	
5	139.3624448776245	response	0	e		0.16666667	0.0666666666667	90.0	88.0	0.0333333333333	0.1333333333333	0.0666666666667	161.76660299301147	
5	140.89850687980652	pulse	0	t		0.16666667	0.0666666666667	90.0	88.0	0.0333333333333	0.1333333333333	0.0666666666667	163.30266499519348	
5	142.49945878982544	pulse	0	t		0.16666667	0.0666666666667	90.0	88.0	0.0333333333333	0.1333333333333	0.0666666666667	164.9036169052124	
5	144.09934282302856	pulse	0	t		0.16666667	0.0666666666667	90.0	88.0	0.0333333333333	0.1333333333333	0.0666666666667	166.50350093841553	
5	145.42028498649597	response	0	e		0.16666667	0.0666666666667	90.0	88.0	0.0333333333333	0.1333333333333	0.0666666666667	167.82444310188293	
5	145.69911193847656	pulse	0	t		0.16666667	0.0666666666667	90.0	88.0	0.0333333333333	0.1333333333333	0.0666666666667	168.10327005386353	
5	147.29913592338562	pulse	0	t		0.16666667	0.0666666666667	90.0	88.0	0.0333333333333	0.1333333333333	0.0666666666667	169.70329403877258	
6	147.31588792800903	stim	0		0	0.16666667	0.0666666666667	180.0	112.0	0.0333333333333	0.1333333333333	0.0666666666667	169.720046043396	24.008080005645752
6	148.8990387916565	pulse	0	t		0.16666667	0.0666666666667	180.0	112.0	0.0333333333333	0.1333333333333	0.0666666666667	171.30319690704346	
6	150.49898386001587	pulse	0	t		0.16666667	0.0666666666667	180.0	112.0	0.0333333333333	0.1333333333333	0.0666666666667	172.90314197540283	
6	151.45590496063232	response	0	e		0.16666667	0.0666666666667	180.0	112.0	0.0333333333333	0.1333333333333	0.0666666666667	173.8600630760193	
6	152.09889578819275	pulse	0	t		0.16666667	0.0666666666667	180.0	112.0	0.0333333333333	0.1333333333333	0.0666666666667	174.5030539035797	
6	153.6988229751587	pulse	0	t		0.16666667	0.0666666666667	180.0	112.0	0.0333333333333	0.1333333333333	0.0666666666667	176.10298109054565	
6	153.83865189552307	response	0	e		0.16666667	0.0666666666667	180.0	112.0	0.0333333333333	0.1333333333333	0.0666666666667	176.24281001091003	
6	155.29868483543396	pulse	0	t		0.16666667	0.0666666666667	180.0	112.0	0.0333333333333	0.1333333333333	0.0666666666667	177.70284295082092	
6	156.89853501319885	pulse	0	t		0.16666667	0.0666666666667	180.0	112.0	0.0333333333333	0.1333333333333	0.0666666666667	179.30269312858582	
6	158.4995629787445	pulse	0	t		0.16666667	0.0666666666667	180.0	112.0	0.0333333333333	0.1333333333333	0.0666666666667	180.90372109413147	
6	160.0993778705597	pulse	0	t		0.16666667	0.0666666666667	180.0	112.0	0.0333333333333	0.1333333333333	0.0666666666667	182.50353598594666	
6	160.15928888320923	response	0	e		0.16666667	0.0666666666667	180.0	112.0	0.0333333333333	0.1333333333333	0.0666666666667	182.5634469985962	
6	161.69927501678467	pulse	0	t		0.16666667	0.0666666666667	180.0	112.0	0.0333333333333	0.1333333333333	0.0666666666667	184.10343313217163	
6	163.29917693138123	pulse	0	t		0.16666667	0.0666666666667	180.0	112.0	0.0333333333333	0.1333333333333	0.0666666666667	185.7033350467682	
6	164.89911580085754	pulse	0	t		0.16666667	0.0666666666667	180.0	112.0	0.0333333333333	0.1333333333333	0.0666666666667	187.3032739162445	
6	165.4520378112793	response	0	e		0.16666667	0.0666666666667	180.0	112.0	0.0333333333333	0.1333333333333	0.0666666666667	187.85619592666626	
6	166.49906492233276	pulse	0	t		0.16666667	0.0666666666667	180.0	112.0	0.0333333333333	0.1333333333333	0.0666666666667	188.90322303771973	
6	168.09900188446045	pulse	0	t		0.16666667	0.0666666666667	180.0	112.0	0.0333333333333	0.1333333333333	0.0666666666667	190.5031599998474	
6	169.6988070011139	pulse	0	t		0.16666667	0.0666666666667	180.0	112.0	0.0333333333333	0.1333333333333	0.0666666666667	192.10296511650085	
6	171.29863500595093	pulse	0	t		0.16666667	0.0666666666667	180.0	112.0	0.0333333333333	0.1333333333333	0.0666666666667	193.7027931213379	
7	171.32396793365479	stim	0		0	-1.0	1.0	-1.0	136.0	0.0333333333333	0.1333333333333	0.0666666666667	193.72812604904175	15.99993085861206
7	172.89917993545532	pulse	0	t		-1.0	1.0	-1.0	136.0	0.0333333333333	0.1333333333333	0.0666666666667	195.30333805084229	
7	174.50089979171753	pulse	0	t		-1.0	1.0	-1.0	136.0	0.0333333333333	0.1333333333333	0.0666666666667	196.9050579071045	
7	175.0074508190155	response	0	e		-1.0	1.0	-1.0	136.0	0.0333333333333	0.1333333333333	0.0666666666667	197.41160893440247	
7	176.1008608341217	pulse	0	t		-1.0	1.0	-1.0	136.0	0.0333333333333	0.1333333333333	0.0666666666667	198.50501894950867	
7	177.70087885856628	pulse	0	t		-1.0	1.0	-1.0	136.0	0.0333333333333	0.1333333333333	0.0666666666667	200.10503697395325	
7	179.29920482635498	pulse	0	t		-1.0	1.0	-1.0	136.0	0.0333333333333	0.1333333333333	0.0666666666667	201.70336294174194	
7	179.36754083633423	response	0	e		-1.0	1.0	-1.0	136.0	0.0333333333333	0.1333333333333	0.0666666666667	201.7716989517212	
7	180.8990969657898	pulse	0	t		-1.0	1.0	-1.0	136.0	0.0333333333333	0.1333333333333	0.0666666666667	203.30325508117676	
7	181.78237080574036	response	0	e		-1.0	1.0	-1.0	136.0	0.0333333333333	0.1333333333333	0.0666666666667	204.18652892112732	
7	182.49903678894043	pulse	0	t		-1.0	1.0	-1.0	136.0	0.0333333333333	0.1333333333333	0.0666666666667	204.9031949043274	
7	184.0990068912506	pulse	0	t		-1.0	1.0	-1.0	136.0	0.0333333333333	0.1333333333333	0.0666666666667	206.50316500663757	
7	185.6990349292755	pulse	0	t		-1.0	1.0	-1.0	136.0	0.0333333333333	0.1333333333333	0.0666666666667	208.10319304466248	
7	187.24910378456116	response	0	e		-1.0	1.0	-1.0	136.0	0.0333333333333	0.1333333333333	0.0666666666667	209.65326189994812	
7	187.29902482032776	pulse	0	t		-1.0	1.0	-1.0	136.0	0.0333333333333	0.1333333333333	0.0666666666667	209.70318293571472	
8	187.32389879226685	stim	0		0	-1.0	1.0	-1.0	152.0	0.0333333333333	0.1333333333333	0.0666666666667	209.7280569076538	15.999994993209839
8	188.89905190467834	pulse	0	t		-1.0	1.0	-1.0	152.0	0.0333333333333	0.1333333333333	0.0666666666667	211.3032100200653	
8	190.50081086158752	pulse	0	t		-1.0	1.0	-1.0	152.0	0.0333333333333	0.1333333333333	0.0666666666667	212.9049689769745	
8	192.10074591636658	pulse	0	t		-1.0	1.0	-1.0	152.0	0.0333333333333	0.1333333333333	0.0666666666667	214.50490403175354	
8	193.70084190368652	pulse	0	t		-1.0	1.0	-1.0	152.0	0.0333333333333	0.1333333333333	0.0666666666667	216.1050000190735	
8	195.29911279678345	pulse	0	t		-1.0	1.0	-1.0	152.0	0.0333333333333	0.1333333333333	0.0666666666667	217.7032709121704	
8	196.3323609828949	response	0	e		-1.0	1.0	-1.0	152.0	0.0333333333333	0.1333333333333	0.0666666666667	218.73651909828186	
8	196.89904499053955	pulse	0	t		-1.0	1.0	-1.0	152.0	0.0333333333333	0.1333333333333	0.0666666666667	219.3032031059265	
8	198.49899888038635	pulse	0	t		-1.0	1.0	-1.0	152.0	0.0333333333333	0.1333333333333	0.0666666666667	220.90315699577332	
8	200.09902596473694	pulse	0	t		-1.0	1.0	-1.0	152.0	0.0333333333333	0.1333333333333	0.0666666666667	222.5031840801239	
8	200.98240280151367	response	0	e		-1.0	1.0	-1.0	152.0	0.0333333333333	0.1333333333333	0.0666666666667	223.38656091690063	
8	201.69893980026245	pulse	0	t		-1.0	1.0	-1.0	152.0	0.0333333333333	0.1333333333333	0.0666666666667	224.1030979156494	
8	203.29905200004578	pulse	0	t		-1.0	1.0	-1.0	152.0	0.0333333333333	0.1333333333333	0.0666666666667	225.70321011543274	
9	203.32389378547668	stim	0		0	0.16666667	0.0666666666667	180.0	168.0	0.0333333333333	0.1333333333333	0.0666666666667	225.72805190086365	23.99988317489624
9	204.89868879318237	pulse	0	t		0.16666667	0.0666666666667	180.0	168.0	0.0333333333333	0.1333333333333	0.0666666666667	227.30284690856934	
9	206.49959182739258	pulse	0	t		0.16666667	0.0666666666667	180.0	168.0	0.0333333333333	0.1333333333333	0.0666666666667	228.90374994277954	
9	208.099515914917	pulse	0	t		0.16666667	0.0666666666667	180.0	168.0	0.0333333333333	0.1333333333333	0.0666666666667	230.50367403030396	
9	209.69939184188843	pulse	0	t		0.16666667	0.0666666666667	180.0	168.0	0.0333333333333	0.1333333333333	0.0666666666667	232.1035499572754	
9	211.29929280281067	pulse	0	t		0.16666667	0.0666666666667	180.0	168.0	0.0333333333333	0.1333333333333	0.0666666666667	233.70345091819763	
9	212.8991379737854	pulse	0	t		0.16666667	0.0666666666667	180.0	168.0	0.0333333333333	0.1333333333333	0.0666666666667	235.30329608917236	
9	213.42215490341187	response	0	e		0.16666667	0.0666666666667	180.0	168.0	0.0333333333333	0.1333333333333	0.0666666666667	235.82631301879883	
9	214.49905395507812	pulse	0	t		0.16666667	0.0666666666667	180.0	168.0	0.0333333333333	0.1333333333333	0.0666666666667	236.9032120704651	
9	216.09897994995117	pulse	0	t		0.16666667	0.0666666666667	180.0	168.0	0.0333333333333	0.1333333333333	0.0666666666667	238.50313806533813	
9	217.69884490966797	pulse	0	t		0.16666667	0.0666666666667	180.0	168.0	0.0333333333333	0.1333333333333	0.0666666666667	240.10300302505493	
9	219.29876685142517	pulse	0	t		0.16666667	0.0666666666667	180.0	168.0	0.0333333333333	0.1333333333333	0.0666666666667	241.70292496681213	
9	220.8986439704895	pulse	0	t		0.16666667	0.0666666666667	180.0	168.0	0.0333333333333	0.1333333333333	0.0666666666667	243.30280208587646	
9	222.4395728111267	response	0	e		0.16666667	0.0666666666667	180.0	168.0	0.0333333333333	0.1333333333333	0.0666666666667	244.84373092651367	
9	222.49942278862	pulse	0	t		0.16666667	0.0666666666667	180.0	168.0	0.0333333333333	0.1333333333333	0.0666666666667	244.90358090400696	
9	224.0995237827301	pulse	0	t		0.16666667	0.0666666666667	180.0	168.0	0.0333333333333	0.1333333333333	0.0666666666667	246.50368189811707	
9	225.6993978023529	pulse	0	t		0.16666667	0.0666666666667	180.0	168.0	0.0333333333333	0.1333333333333	0.0666666666667	248.10355591773987	
9	226.02130579948425	response	0	e		0.16666667	0.0666666666667	180.0	168.0	0.0333333333333	0.1333333333333	0.0666666666667	248.42546391487122	
9	227.2992718219757	pulse	0	t		0.16666667	0.0666666666667	180.0	168.0	0.0333333333333	0.1333333333333	0.0666666666667	249.70342993736267	
10	227.32377696037292	stim	0		0	0.16666667	0.0666666666667	90.0	192.0	0.0333333333333	0.1333333333333	0.0666666666667	249.7279350757599	23.991679906845093
10	228.89914679527283	pulse	0	t		0.16666667	0.0666666666667	90.0	192.0	0.0333333333333	0.1333333333333	0.0666666666667	251.3033049106598	
10	230.49907279014587	pulse	0	t		0.16666667	0.0666666666667	90.0	192.0	0.0333333333333	0.1333333333333	0.0666666666667	252.90323090553284	
10	231.32499289512634	response	0	e		0.16666667	0.0666666666667	90.0	192.0	0.0333333333333	0.1333333333333	0.0666666666667	253.7291510105133	
10	232.09896993637085	pulse	0	t		0.16666667	0.0666666666667	90.0	192.0	0.0333333333333	0.1333333333333	0.0666666666667	254.5031280517578	
10	233.69890189170837	pulse	0	t		0.16666667	0.0666666666667	90.0	192.0	0.0333333333333	0.1333333333333	0.0666666666667	256.10306000709534	
10	235.29882192611694	pulse	0	t		0.16666667	0.0666666666667	90.0	192.0	0.0333333333333	0.1333333333333	0.0666666666667	257.7029800415039	
10	236.89873385429382	pulse	0	t		0.16666667	0.0666666666667	90.0	192.0	0.0333333333333	0.1333333333333	0.0666666666667	259.3028919696808	
10	236.92353296279907	response	0	e		0.16666667	0.0666666666667	90.0	192.0	0.0333333333333	0.1333333333333	0.0666666666667	259.32769107818604	
10	238.4996099472046	pulse	0	t		0.16666667	0.0666666666667	90.0	192.0	0.0333333333333	0.1333333333333	0.0666666666667	260.90376806259155	
10	240.09950280189514	pulse	0	t		0.16666667	0.0666666666667	90.0	192.0	0.0333333333333	0.1333333333333	0.0666666666667	262.5036609172821	
10	240.3155198097229	response	0	e		0.16666667	0.0666666666667	90.0	192.0	0.0333333333333	0.1333333333333	0.0666666666667	262.71967792510986	
10	241.69943380355835	pulse	0	t		0.16666667	0.0666666666667	90.0	192.0	0.0333333333333	0.1333333333333	0.0666666666667	264.1035919189453	
10	243.29924178123474	pulse	0	t		0.16666667	0.0666666666667	90.0	192.0	0.0333333333333	0.1333333333333	0.0666666666667	265.7033998966217	
10	244.89919900894165	pulse	0	t		0.16666667	0.0666666666667	90.0	192.0	0.0333333333333	0.1333333333333	0.0666666666667	267.3033571243286	
10	245.62516593933105	response	0	e		0.16666667	0.0666666666667	90.0	192.0	0.0333333333333	0.1333333333333	0.0666666666667	268.029324054718	
10	246.49907088279724	pulse	0	t		0.16666667	0.0666666666667	90.0	192.0	0.0333333333333	0.1333333333333	0.0666666666667	268.9032289981842	
10	248.09909892082214	pulse	0	t		0.16666667	0.0666666666667	90.0	192.0	0.0333333333333	0.1333333333333	0.0666666666667	270.5032570362091	
10	248.20091485977173	response	0	e		0.16666667	0.0666666666667	90.0	192.0	0.0333333333333	0.1333333333333	0.0666666666667	270.6050729751587	
10	249.6989209651947	pulse	0	t		0.16666667	0.0666666666667	90.0	192.0	0.0333333333333	0.1333333333333	0.0666666666667	272.10307908058167	
10	250.8278398513794	response	0	e		0.16666667	0.0666666666667	90.0	192.0	0.0333333333333	0.1333333333333	0.0666666666667	273.23199796676636	
10	251.29878401756287	pulse	0	t		0.16666667	0.0666666666667	90.0	192.0	0.0333333333333	0.1333333333333	0.0666666666667	273.70294213294983	
11	251.31545686721802	stim	0		0	-1.0	1.0	-1.0	216.0	0.0333333333333	0.1333333333333	0.0666666666667	273.719614982605	16.008201122283936
11	252.8988709449768	pulse	0	t		-1.0	1.0	-1.0	216.0	0.0333333333333	0.1333333333333	0.0666666666667	275.30302906036377	
11	254.50072288513184	pulse	0	t		-1.0	1.0	-1.0	216.0	0.0333333333333	0.1333333333333	0.0666666666667	276.9048810005188	
11	256.00703382492065	response	0	e		-1.0	1.0	-1.0	216.0	0.0333333333333	0.1333333333333	0.0666666666667	278.4111919403076	
11	256.10053300857544	pulse	0	t		-1.0	1.0	-1.0	216.0	0.0333333333333	0.1333333333333	0.0666666666667	278.5046911239624	
11	257.70057678222656	pulse	0	t		-1.0	1.0	-1.0	216.0	0.0333333333333	0.1333333333333	0.0666666666667	280.1047348976135	
11	259.20702481269836	response	0	e		-1.0	1.0	-1.0	216.0	0.0333333333333	0.1333333333333	0.0666666666667	281.6111829280853	
11	259.30047082901	pulse	0	t		-1.0	1.0	-1.0	216.0	0.0333333333333	0.1333333333333	0.0666666666667	281.704628944397	
11	260.90060687065125	pulse	0	t		-1.0	1.0	-1.0	216.0	0.0333333333333	0.1333333333333	0.0666666666667	283.3047649860382	
11	262.5004858970642	pulse	0	t		-1.0	1.0	-1.0	216.0	0.0333333333333	0.1333333333333	0.0666666666667	284.9046440124512	
11	264.1005518436432	pulse	0	t		-1.0	1.0	-1.0	216.0	0.0333333333333	0.1333333333333	0.0666666666667	286.50470995903015	
11	264.6904218196869	response	0	e		-1.0	1.0	-1.0	216.0	0.0333333333333	0.1333333333333	0.0666666666667	287.09457993507385	
11	265.70043301582336	pulse	0	t		-1.0	1.0	-1.0	216.0	0.0333333333333	0.1333333333333	0.0666666666667	288.1045911312103	
11	267.2987439632416	pulse	0	t		-1.0	1.0	-1.0	216.0	0.0333333333333	0.1333333333333	0.0666666666667	289.70290207862854	
12	267.32365798950195	stim	0		0	0.16666667	0.0666666666667	0.0	232.0	0.0333333333333	0.1333333333333	0.0666666666667	289.7278161048889	23.99140501022339
12	268.89881801605225	pulse	0	t		0.16666667	0.0666666666667	0.0	232.0	0.0333333333333	0.1333333333333	0.0666666666667	291.3029761314392	
12	269.3056788444519	response	0	e		0.16666667	0.0666666666667	0.0	232.0	0.0333333333333	0.1333333333333	0.0666666666667	291.70983695983887	
12	270.49959993362427	pulse	0	t		0.16666667	0.0666666666667	0.0	232.0	0.0333333333333	0.1333333333333	0.0666666666667	292.90375804901123	
12	271.7046089172363	response	0	e		0.16666667	0.0666666666667	0.0	232.0	0.0333333333333	0.1333333333333	0.0666666666667	294.1087670326233	
12	272.09948992729187	pulse	0	t		0.16666667	0.0666666666667	0.0	232.0	0.0333333333333	0.1333333333333	0.0666666666667	294.50364804267883	
12	273.69942688941956	pulse	0	t		0.16666667	0.0666666666667	0.0	232.0	0.0333333333333	0.1333333333333	0.0666666666667	296.1035850048065	
12	275.2993609905243	pulse	0	t		0.16666667	0.0666666666667	0.0	232.0	0.0333333333333	0.1333333333333	0.0666666666667	297.70351910591125	
12	276.89931893348694	pulse	0	t		0.16666667	0.0666666666667	0.0	232.0	0.0333333333333	0.1333333333333	0.0666666666667	299.3034770488739	
12	278.49914288520813	pulse	0	t		0.16666667	0.0666666666667	0.0	232.0	0.0333333333333	0.1333333333333	0.0666666666667	300.9033010005951	
12	279.9340889453888	response	0	e		0.16666667	0.0666666666667	0.0	232.0	0.0333333333333	0.1333333333333	0.0666666666667	302.33824706077576	
12	280.09892296791077	pulse	0	t		0.16666667	0.0666666666667	0.0	232.0	0.0333333333333	0.1333333333333	0.0666666666667	302.50308108329773	
12	281.6989920139313	pulse	0	t		0.16666667	0.0666666666667	0.0	232.0	0.0333333333333	0.1333333333333	0.0666666666667	304.10315012931824	
12	283.29896783828735	pulse	0	t		0.16666667	0.0666666666667	0.0	232.0	0.0333333333333	0.1333333333333	0.0666666666667	305.7031259536743	
12	284.89876985549927	pulse	0	t		0.16666667	0.0666666666667	0.0	232.0	0.0333333333333	0.1333333333333	0.0666666666667	307.30292797088623	
12	286.0827579498291	response	0	e		0.16666667	0.0666666666667	0.0	232.0	0.0333333333333	0.1333333333333	0.0666666666667	308.48691606521606	
12	286.499547958374	pulse	0	t		0.16666667	0.0666666666667	0.0	232.0	0.0333333333333	0.1333333333333	0.0666666666667	308.903706073761	
12	288.09952688217163	pulse	0	t		0.16666667	0.0666666666667	0.0	232.0	0.0333333333333	0.1333333333333	0.0666666666667	310.5036849975586	
12	289.6994078159332	pulse	0	t		0.16666667	0.0666666666667	0.0	232.0	0.0333333333333	0.1333333333333	0.0666666666667	312.1035659313202	
12	290.1344518661499	response	0	e		0.16666667	0.0666666666667	0.0	232.0	0.0333333333333	0.1333333333333	0.0666666666667	312.53860998153687	
12	291.2993869781494	pulse	0	t		0.16666667	0.0666666666667	0.0	232.0	0.0333333333333	0.1333333333333	0.0666666666667	313.7035450935364	
13	291.31506299972534	stim	0		0	0.16666667	0.0666666666667	270.0	256.0	0.0333333333333	0.1333333333333	0.0666666666667	313.7192211151123	24.008304834365845
13	292.89931988716125	pulse	0	t		0.16666667	0.0666666666667	270.0	256.0	0.0333333333333	0.1333333333333	0.0666666666667	315.3034780025482	
13	294.4991629123688	pulse	0	t		0.16666667	0.0666666666667	270.0	256.0	0.0333333333333	0.1333333333333	0.0666666666667	316.90332102775574	
13	294.8611400127411	response	0	e		0.16666667	0.0666666666667	270.0	256.0	0.0333333333333	0.1333333333333	0.0666666666667	317.26529812812805	
13	296.0991098880768	pulse	0	t		0.16666667	0.0666666666667	270.0	256.0	0.0333333333333	0.1333333333333	0.0666666666667	318.50326800346375	
13	297.6990079879761	pulse	0	t		0.16666667	0.0666666666667	270.0	256.0	0.0333333333333	0.1333333333333	0.0666666666667	320.10316610336304	
13	299.2989590167999	pulse	0	t		0.16666667	0.0666666666667	270.0	256.0	0.0333333333333	0.1333333333333	0.0666666666667	321.7031171321869	
13	300.89871883392334	pulse	0	t		0.16666667	0.0666666666667	270.0	256.0	0.0333333333333	0.1333333333333	0.0666666666667	323.3028769493103	
13	302.49963879585266	pulse	0	t		0.16666667	0.0666666666667	270.0	256.0	0.0333333333333	0.1333333333333	0.0666666666667	324.9037969112396	
13	304.0996038913727	pulse	0	t		0.16666667	0.0666666666667	270.0	256.0	0.0333333333333	0.1333333333333	0.0666666666667	326.50376200675964	
13	304.5175528526306	response	0	e		0.16666667	0.0666666666667	270.0	256.0	0.0333333333333	0.1333333333333	0.0666666666667	326.9217109680176	
13	305.69953179359436	pulse	0	t		0.16666667	0.0666666666667	270.0	256.0	0.0333333333333	0.1333333333333	0.0666666666667	328.1036899089813	
13	307.2994599342346	pulse	0	t		0.16666667	0.0666666666667	270.0	256.0	0.0333333333333	0.1333333333333	0.0666666666667	329.7036180496216	
13	307.6113529205322	response	0	e		0.16666667	0.0666666666667	270.0	256.0	0.0333333333333	0.1333333333333	0.0666666666667	330.0155110359192	
13	308.8993649482727	pulse	0	t		0.16666667	0.0666666666667	270.0	256.0	0.0333333333333	0.1333333333333	0.0666666666667	331.30352306365967	
13	310.49916887283325	pulse	0	t		0.16666667	0.0666666666667	270.0	256.0	0.0333333333333	0.1333333333333	0.0666666666667	332.9033269882202	
13	310.96128487586975	response	0	e		0.16666667	0.0666666666667	270.0	256.0	0.0333333333333	0.1333333333333	0.0666666666667	333.3654429912567	
13	312.09914898872375	pulse	0	t		0.16666667	0.0666666666667	270.0	256.0	0.0333333333333	0.1333333333333	0.0666666666667	334.5033071041107	
13	313.6990568637848	pulse	0	t		0.16666667	0.0666666666667	270.0	256.0	0.0333333333333	0.1333333333333	0.0666666666667	336.10321497917175	
13	315.2989308834076	pulse	0	t		0.16666667	0.0666666666667	270.0	256.0	0.0333333333333	0.1333333333333	0.0666666666667	337.70308899879456	
14	315.3233678340912	stim	0		0								337.72752594947815	24.341511964797974
14	316.9003129005432	pulse	0	t									339.3044710159302	
14	318.50025701522827	pulse	0	t									340.90441513061523	
14	320.1001868247986	pulse	0	t									342.50434494018555	
14	320.5902009010315	response	0	e									342.99435901641846	
14	321.70024490356445	pulse	0	t									344.1044030189514	
14	323.30020093917847	pulse	0	t									345.70435905456543	
14	324.90012288093567	pulse	0	t									347.30428099632263	
14	325.66510486602783	response	0	e									348.0692629814148	
14	326.50017285346985	pulse	0	t									348.9043309688568	
14	328.0567708015442	response	0	e									350.46092891693115	
14	328.10017585754395	pulse	0	t									350.5043339729309	
14	329.70026779174805	pulse	0	t									352.104425907135	
14	331.299751996994	pulse	0	t									353.703910112381	
14	332.900337934494	pulse	0	t									355.304496049881	
14	334.500168800354	pulse	0	t									356.90432691574097	
14	336.10028100013733	pulse	0	t									358.5044391155243	
14	337.70031094551086	pulse	0	t									360.1044690608978	
14	338.37351083755493	response	0	e									360.7776689529419	
14	339.30006098747253	pulse	0	t									361.7042191028595	
