trial_nr	onset	event_type	phase	response	nr_frames	bar_width	bar_refresh_time	bar_direction	start_time	bar_blank_duration	bar_blank_interval	bg_stim_refresh_time	onset_abs	duration
0	0.14127111434936523	stim	0		0								24.67475414276123	1.416896104812622
0	1.5502550601959229	response	0	space									26.083738088607788	
1	1.5581672191619873	stim	0		0								26.091650247573853	37.21655583381653
1	38.75906300544739	pulse	0	t									63.29254603385925	
1	38.774723052978516	stim	1		0								63.30820608139038	24.00817108154297
1	40.35813617706299	pulse	1	t									64.89161920547485	
1	41.95816707611084	pulse	1	t									66.4916501045227	
1	43.55808401107788	pulse	1	t									68.09156703948975	
1	45.15824913978577	pulse	1	t									69.69173216819763	
1	46.75808620452881	pulse	1	t									71.29156923294067	
1	48.35811805725098	pulse	1	t									72.89160108566284	
1	49.95813202857971	pulse	1	t									74.49161505699158	
1	51.558117151260376	pulse	1	t									76.09160017967224	
1	53.158114194869995	pulse	1	t									77.69159722328186	
1	54.758169174194336	pulse	1	t									79.2916522026062	
1	56.35815501213074	pulse	1	t									80.8916380405426	
1	57.95809316635132	pulse	1	t									82.49157619476318	
1	59.55768013000488	pulse	1	t									84.09116315841675	
1	61.157915115356445	pulse	1	t									85.69139814376831	
1	62.7580292224884	pulse	1	t									87.29151225090027	
2	62.782894134521484	stim	0		0	0.16666667	0.0666666666667	270.0	24.0	0.0333333333333	0.1333333333333	0.0666666666667	87.31637716293335	23.999851942062378
2	64.35268712043762	pulse	0	t		0.16666667	0.0666666666667	270.0	24.0	0.0333333333333	0.1333333333333	0.0666666666667	88.88617014884949	
2	65.95253801345825	pulse	0	t		0.16666667	0.0666666666667	270.0	24.0	0.0333333333333	0.1333333333333	0.0666666666667	90.48602104187012	
2	66.19243717193604	response	0	r		0.16666667	0.0666666666667	270.0	24.0	0.0333333333333	0.1333333333333	0.0666666666667	90.7259202003479	
2	67.55350804328918	pulse	0	t		0.16666667	0.0666666666667	270.0	24.0	0.0333333333333	0.1333333333333	0.0666666666667	92.08699107170105	
2	69.15341901779175	pulse	0	t		0.16666667	0.0666666666667	270.0	24.0	0.0333333333333	0.1333333333333	0.0666666666667	93.68690204620361	
2	70.49525713920593	response	0	r		0.16666667	0.0666666666667	270.0	24.0	0.0333333333333	0.1333333333333	0.0666666666667	95.0287401676178	
2	70.75323510169983	pulse	0	t		0.16666667	0.0666666666667	270.0	24.0	0.0333333333333	0.1333333333333	0.0666666666667	95.2867181301117	
2	72.35319900512695	pulse	0	t		0.16666667	0.0666666666667	270.0	24.0	0.0333333333333	0.1333333333333	0.0666666666667	96.88668203353882	
2	73.95310306549072	pulse	0	t		0.16666667	0.0666666666667	270.0	24.0	0.0333333333333	0.1333333333333	0.0666666666667	98.48658609390259	
2	75.55303502082825	pulse	0	t		0.16666667	0.0666666666667	270.0	24.0	0.0333333333333	0.1333333333333	0.0666666666667	100.08651804924011	
2	76.47999215126038	response	0	r		0.16666667	0.0666666666667	270.0	24.0	0.0333333333333	0.1333333333333	0.0666666666667	101.01347517967224	
2	77.1528902053833	pulse	0	t		0.16666667	0.0666666666667	270.0	24.0	0.0333333333333	0.1333333333333	0.0666666666667	101.68637323379517	
2	78.75276517868042	pulse	0	t		0.16666667	0.0666666666667	270.0	24.0	0.0333333333333	0.1333333333333	0.0666666666667	103.28624820709229	
2	80.20364499092102	response	0	r		0.16666667	0.0666666666667	270.0	24.0	0.0333333333333	0.1333333333333	0.0666666666667	104.73712801933289	
2	80.35257005691528	pulse	0	t		0.16666667	0.0666666666667	270.0	24.0	0.0333333333333	0.1333333333333	0.0666666666667	104.88605308532715	
2	81.95260810852051	pulse	0	t		0.16666667	0.0666666666667	270.0	24.0	0.0333333333333	0.1333333333333	0.0666666666667	106.48609113693237	
2	82.1324770450592	response	0	r		0.16666667	0.0666666666667	270.0	24.0	0.0333333333333	0.1333333333333	0.0666666666667	106.66596007347107	
2	83.55349612236023	pulse	0	t		0.16666667	0.0666666666667	270.0	24.0	0.0333333333333	0.1333333333333	0.0666666666667	108.0869791507721	
2	84.19451212882996	response	0	r		0.16666667	0.0666666666667	270.0	24.0	0.0333333333333	0.1333333333333	0.0666666666667	108.72799515724182	
2	85.15340518951416	pulse	0	t		0.16666667	0.0666666666667	270.0	24.0	0.0333333333333	0.1333333333333	0.0666666666667	109.68688821792603	
2	86.75334906578064	pulse	0	t		0.16666667	0.0666666666667	270.0	24.0	0.0333333333333	0.1333333333333	0.0666666666667	111.2868320941925	
3	86.78274607658386	stim	0		0	0.16666667	0.0666666666667	0.0	48.0	0.0333333333333	0.1333333333333	0.0666666666667	111.31622910499573	23.99993395805359
3	88.35336112976074	pulse	0	t		0.16666667	0.0666666666667	0.0	48.0	0.0333333333333	0.1333333333333	0.0666666666667	112.88684415817261	
3	89.95311903953552	pulse	0	t		0.16666667	0.0666666666667	0.0	48.0	0.0333333333333	0.1333333333333	0.0666666666667	114.48660206794739	
3	91.55307912826538	pulse	0	t		0.16666667	0.0666666666667	0.0	48.0	0.0333333333333	0.1333333333333	0.0666666666667	116.08656215667725	
3	93.15288209915161	pulse	0	t		0.16666667	0.0666666666667	0.0	48.0	0.0333333333333	0.1333333333333	0.0666666666667	117.68636512756348	
3	93.60185408592224	response	0	r		0.16666667	0.0666666666667	0.0	48.0	0.0333333333333	0.1333333333333	0.0666666666667	118.1353371143341	
3	94.75278902053833	pulse	0	t		0.16666667	0.0666666666667	0.0	48.0	0.0333333333333	0.1333333333333	0.0666666666667	119.2862720489502	
3	96.35271501541138	pulse	0	t		0.16666667	0.0666666666667	0.0	48.0	0.0333333333333	0.1333333333333	0.0666666666667	120.88619804382324	
3	96.68160915374756	response	0	r		0.16666667	0.0666666666667	0.0	48.0	0.0333333333333	0.1333333333333	0.0666666666667	121.21509218215942	
3	97.95267415046692	pulse	0	t		0.16666667	0.0666666666667	0.0	48.0	0.0333333333333	0.1333333333333	0.0666666666667	122.48615717887878	
3	99.55353617668152	pulse	0	t		0.16666667	0.0666666666667	0.0	48.0	0.0333333333333	0.1333333333333	0.0666666666667	124.08701920509338	
3	100.88540720939636	response	0	r		0.16666667	0.0666666666667	0.0	48.0	0.0333333333333	0.1333333333333	0.0666666666667	125.41889023780823	
3	101.15334010124207	pulse	0	t		0.16666667	0.0666666666667	0.0	48.0	0.0333333333333	0.1333333333333	0.0666666666667	125.68682312965393	
3	102.75330400466919	pulse	0	t		0.16666667	0.0666666666667	0.0	48.0	0.0333333333333	0.1333333333333	0.0666666666667	127.28678703308105	
3	103.45828914642334	response	0	r		0.16666667	0.0666666666667	0.0	48.0	0.0333333333333	0.1333333333333	0.0666666666667	127.9917721748352	
3	104.35323405265808	pulse	0	t		0.16666667	0.0666666666667	0.0	48.0	0.0333333333333	0.1333333333333	0.0666666666667	128.88671708106995	
3	105.95313906669617	pulse	0	t		0.16666667	0.0666666666667	0.0	48.0	0.0333333333333	0.1333333333333	0.0666666666667	130.48662209510803	
3	107.55300903320312	pulse	0	t		0.16666667	0.0666666666667	0.0	48.0	0.0333333333333	0.1333333333333	0.0666666666667	132.086492061615	
3	108.39297199249268	response	0	r		0.16666667	0.0666666666667	0.0	48.0	0.0333333333333	0.1333333333333	0.0666666666667	132.92645502090454	
3	109.15296006202698	pulse	0	t		0.16666667	0.0666666666667	0.0	48.0	0.0333333333333	0.1333333333333	0.0666666666667	133.68644309043884	
3	110.75280714035034	pulse	0	t		0.16666667	0.0666666666667	0.0	48.0	0.0333333333333	0.1333333333333	0.0666666666667	135.2862901687622	
4	110.78268003463745	stim	0		0	-1.0	1.0	-1.0	72.0	0.0333333333333	0.1333333333333	0.0666666666667	135.31616306304932	15.99993109703064
4	112.35795307159424	pulse	0	t		-1.0	1.0	-1.0	72.0	0.0333333333333	0.1333333333333	0.0666666666667	136.8914361000061	
4	113.95787620544434	pulse	0	t		-1.0	1.0	-1.0	72.0	0.0333333333333	0.1333333333333	0.0666666666667	138.4913592338562	
4	115.55743908882141	pulse	0	t		-1.0	1.0	-1.0	72.0	0.0333333333333	0.1333333333333	0.0666666666667	140.09092211723328	
4	117.15818810462952	pulse	0	t		-1.0	1.0	-1.0	72.0	0.0333333333333	0.1333333333333	0.0666666666667	141.69167113304138	
4	118.75776815414429	pulse	0	t		-1.0	1.0	-1.0	72.0	0.0333333333333	0.1333333333333	0.0666666666667	143.29125118255615	
4	120.24948406219482	response	0	r		-1.0	1.0	-1.0	72.0	0.0333333333333	0.1333333333333	0.0666666666667	144.7829670906067	
4	120.35778212547302	pulse	0	t		-1.0	1.0	-1.0	72.0	0.0333333333333	0.1333333333333	0.0666666666667	144.8912651538849	
4	121.95763206481934	pulse	0	t		-1.0	1.0	-1.0	72.0	0.0333333333333	0.1333333333333	0.0666666666667	146.4911150932312	
4	123.55776619911194	pulse	0	t		-1.0	1.0	-1.0	72.0	0.0333333333333	0.1333333333333	0.0666666666667	148.0912492275238	
4	123.74098014831543	response	0	r		-1.0	1.0	-1.0	72.0	0.0333333333333	0.1333333333333	0.0666666666667	148.2744631767273	
4	125.1577091217041	pulse	0	t		-1.0	1.0	-1.0	72.0	0.0333333333333	0.1333333333333	0.0666666666667	149.69119215011597	
4	126.71782803535461	response	0	r		-1.0	1.0	-1.0	72.0	0.0333333333333	0.1333333333333	0.0666666666667	151.25131106376648	
4	126.75770711898804	pulse	0	t		-1.0	1.0	-1.0	72.0	0.0333333333333	0.1333333333333	0.0666666666667	151.2911901473999	
5	126.78261113166809	stim	0		0	0.16666667	0.0666666666667	90.0	88.0	0.0333333333333	0.1333333333333	0.0666666666667	151.31609416007996	23.991533041000366
5	128.35281109809875	pulse	0	t		0.16666667	0.0666666666667	90.0	88.0	0.0333333333333	0.1333333333333	0.0666666666667	152.88629412651062	
5	129.39369416236877	response	0	r		0.16666667	0.0666666666667	90.0	88.0	0.0333333333333	0.1333333333333	0.0666666666667	153.92717719078064	
5	129.95267009735107	pulse	0	t		0.16666667	0.0666666666667	90.0	88.0	0.0333333333333	0.1333333333333	0.0666666666667	154.48615312576294	
5	131.55367422103882	pulse	0	t		0.16666667	0.0666666666667	90.0	88.0	0.0333333333333	0.1333333333333	0.0666666666667	156.08715724945068	
5	133.15352821350098	pulse	0	t		0.16666667	0.0666666666667	90.0	88.0	0.0333333333333	0.1333333333333	0.0666666666667	157.68701124191284	
5	134.7533700466156	pulse	0	t		0.16666667	0.0666666666667	90.0	88.0	0.0333333333333	0.1333333333333	0.0666666666667	159.28685307502747	
5	136.35327100753784	pulse	0	t		0.16666667	0.0666666666667	90.0	88.0	0.0333333333333	0.1333333333333	0.0666666666667	160.8867540359497	
5	137.9532401561737	pulse	0	t		0.16666667	0.0666666666667	90.0	88.0	0.0333333333333	0.1333333333333	0.0666666666667	162.48672318458557	
5	139.47512316703796	response	0	r		0.16666667	0.0666666666667	90.0	88.0	0.0333333333333	0.1333333333333	0.0666666666667	164.00860619544983	
5	139.55299401283264	pulse	0	t		0.16666667	0.0666666666667	90.0	88.0	0.0333333333333	0.1333333333333	0.0666666666667	164.0864770412445	
5	141.15306115150452	pulse	0	t		0.16666667	0.0666666666667	90.0	88.0	0.0333333333333	0.1333333333333	0.0666666666667	165.68654417991638	
5	142.75290608406067	pulse	0	t		0.16666667	0.0666666666667	90.0	88.0	0.0333333333333	0.1333333333333	0.0666666666667	167.28638911247253	
5	142.9567141532898	response	0	r		0.16666667	0.0666666666667	90.0	88.0	0.0333333333333	0.1333333333333	0.0666666666667	167.49019718170166	
5	144.35279822349548	pulse	0	t		0.16666667	0.0666666666667	90.0	88.0	0.0333333333333	0.1333333333333	0.0666666666667	168.88628125190735	
5	145.95267915725708	pulse	0	t		0.16666667	0.0666666666667	90.0	88.0	0.0333333333333	0.1333333333333	0.0666666666667	170.48616218566895	
5	147.55355310440063	pulse	0	t		0.16666667	0.0666666666667	90.0	88.0	0.0333333333333	0.1333333333333	0.0666666666667	172.0870361328125	
5	149.1534731388092	pulse	0	t		0.16666667	0.0666666666667	90.0	88.0	0.0333333333333	0.1333333333333	0.0666666666667	173.68695616722107	
5	150.7534031867981	pulse	0	t		0.16666667	0.0666666666667	90.0	88.0	0.0333333333333	0.1333333333333	0.0666666666667	175.28688621520996	
6	150.77414417266846	stim	0		0	0.16666667	0.0666666666667	180.0	112.0	0.0333333333333	0.1333333333333	0.0666666666667	175.30762720108032	23.99988889694214
6	151.2044961452484	response	0	r		0.16666667	0.0666666666667	180.0	112.0	0.0333333333333	0.1333333333333	0.0666666666667	175.73797917366028	
6	152.3533971309662	pulse	0	t		0.16666667	0.0666666666667	180.0	112.0	0.0333333333333	0.1333333333333	0.0666666666667	176.88688015937805	
6	153.95338201522827	pulse	0	t		0.16666667	0.0666666666667	180.0	112.0	0.0333333333333	0.1333333333333	0.0666666666667	178.48686504364014	
6	155.5532510280609	pulse	0	t		0.16666667	0.0666666666667	180.0	112.0	0.0333333333333	0.1333333333333	0.0666666666667	180.08673405647278	
6	156.29615211486816	response	0	r		0.16666667	0.0666666666667	180.0	112.0	0.0333333333333	0.1333333333333	0.0666666666667	180.82963514328003	
6	157.15319108963013	pulse	0	t		0.16666667	0.0666666666667	180.0	112.0	0.0333333333333	0.1333333333333	0.0666666666667	181.686674118042	
6	158.75305199623108	pulse	0	t		0.16666667	0.0666666666667	180.0	112.0	0.0333333333333	0.1333333333333	0.0666666666667	183.28653502464294	
6	160.3530080318451	pulse	0	t		0.16666667	0.0666666666667	180.0	112.0	0.0333333333333	0.1333333333333	0.0666666666667	184.88649106025696	
6	161.9528350830078	pulse	0	t		0.16666667	0.0666666666667	180.0	112.0	0.0333333333333	0.1333333333333	0.0666666666667	186.48631811141968	
6	162.55279421806335	response	0	r		0.16666667	0.0666666666667	180.0	112.0	0.0333333333333	0.1333333333333	0.0666666666667	187.08627724647522	
6	163.55374312400818	pulse	0	t		0.16666667	0.0666666666667	180.0	112.0	0.0333333333333	0.1333333333333	0.0666666666667	188.08722615242004	
6	165.15364813804626	pulse	0	t		0.16666667	0.0666666666667	180.0	112.0	0.0333333333333	0.1333333333333	0.0666666666667	189.68713116645813	
6	166.7535321712494	pulse	0	t		0.16666667	0.0666666666667	180.0	112.0	0.0333333333333	0.1333333333333	0.0666666666667	191.28701519966125	
6	168.35344910621643	pulse	0	t		0.16666667	0.0666666666667	180.0	112.0	0.0333333333333	0.1333333333333	0.0666666666667	192.8869321346283	
6	169.9534091949463	pulse	0	t		0.16666667	0.0666666666667	180.0	112.0	0.0333333333333	0.1333333333333	0.0666666666667	194.48689222335815	
6	170.66033411026	response	0	r		0.16666667	0.0666666666667	180.0	112.0	0.0333333333333	0.1333333333333	0.0666666666667	195.19381713867188	
6	171.5532500743866	pulse	0	t		0.16666667	0.0666666666667	180.0	112.0	0.0333333333333	0.1333333333333	0.0666666666667	196.08673310279846	
6	173.15319919586182	pulse	0	t		0.16666667	0.0666666666667	180.0	112.0	0.0333333333333	0.1333333333333	0.0666666666667	197.68668222427368	
6	174.75309920310974	pulse	0	t		0.16666667	0.0666666666667	180.0	112.0	0.0333333333333	0.1333333333333	0.0666666666667	199.2865822315216	
7	174.7740330696106	stim	0		0	-1.0	1.0	-1.0	136.0	0.0333333333333	0.1333333333333	0.0666666666667	199.30751609802246	16.0083429813385
7	174.77792620658875	response	0	r		-1.0	1.0	-1.0	136.0	0.0333333333333	0.1333333333333	0.0666666666667	199.3114092350006	
7	176.35758900642395	pulse	0	t		-1.0	1.0	-1.0	136.0	0.0333333333333	0.1333333333333	0.0666666666667	200.89107203483582	
7	177.95749020576477	pulse	0	t		-1.0	1.0	-1.0	136.0	0.0333333333333	0.1333333333333	0.0666666666667	202.49097323417664	
7	179.45747208595276	response	0	r		-1.0	1.0	-1.0	136.0	0.0333333333333	0.1333333333333	0.0666666666667	203.99095511436462	
7	179.55742812156677	pulse	0	t		-1.0	1.0	-1.0	136.0	0.0333333333333	0.1333333333333	0.0666666666667	204.09091114997864	
7	181.15744018554688	pulse	0	t		-1.0	1.0	-1.0	136.0	0.0333333333333	0.1333333333333	0.0666666666667	205.69092321395874	
7	182.7574200630188	pulse	0	t		-1.0	1.0	-1.0	136.0	0.0333333333333	0.1333333333333	0.0666666666667	207.29090309143066	
7	182.8657670021057	response	0	r		-1.0	1.0	-1.0	136.0	0.0333333333333	0.1333333333333	0.0666666666667	207.39925003051758	
7	184.35738706588745	pulse	0	t		-1.0	1.0	-1.0	136.0	0.0333333333333	0.1333333333333	0.0666666666667	208.89087009429932	
7	185.95744514465332	pulse	0	t		-1.0	1.0	-1.0	136.0	0.0333333333333	0.1333333333333	0.0666666666667	210.49092817306519	
7	187.55742406845093	pulse	0	t		-1.0	1.0	-1.0	136.0	0.0333333333333	0.1333333333333	0.0666666666667	212.0909070968628	
7	188.0740830898285	response	0	r		-1.0	1.0	-1.0	136.0	0.0333333333333	0.1333333333333	0.0666666666667	212.60756611824036	
7	189.15742206573486	pulse	0	t		-1.0	1.0	-1.0	136.0	0.0333333333333	0.1333333333333	0.0666666666667	213.69090509414673	
7	190.7573971748352	pulse	0	t		-1.0	1.0	-1.0	136.0	0.0333333333333	0.1333333333333	0.0666666666667	215.29088020324707	
8	190.7823760509491	stim	0		0	-1.0	1.0	-1.0	152.0	0.0333333333333	0.1333333333333	0.0666666666667	215.31585907936096	15.999791145324707
8	192.35741901397705	pulse	0	t		-1.0	1.0	-1.0	152.0	0.0333333333333	0.1333333333333	0.0666666666667	216.89090204238892	
8	193.95740604400635	pulse	0	t		-1.0	1.0	-1.0	152.0	0.0333333333333	0.1333333333333	0.0666666666667	218.4908890724182	
8	195.5574140548706	pulse	0	t		-1.0	1.0	-1.0	152.0	0.0333333333333	0.1333333333333	0.0666666666667	220.09089708328247	
8	195.64069199562073	response	0	r		-1.0	1.0	-1.0	152.0	0.0333333333333	0.1333333333333	0.0666666666667	220.1741750240326	
8	197.1574079990387	pulse	0	t		-1.0	1.0	-1.0	152.0	0.0333333333333	0.1333333333333	0.0666666666667	221.69089102745056	
8	198.7574110031128	pulse	0	t		-1.0	1.0	-1.0	152.0	0.0333333333333	0.1333333333333	0.0666666666667	223.29089403152466	
8	200.3425371646881	response	0	r		-1.0	1.0	-1.0	152.0	0.0333333333333	0.1333333333333	0.0666666666667	224.87602019309998	
8	200.35732102394104	pulse	0	t		-1.0	1.0	-1.0	152.0	0.0333333333333	0.1333333333333	0.0666666666667	224.8908040523529	
8	201.95738410949707	pulse	0	t		-1.0	1.0	-1.0	152.0	0.0333333333333	0.1333333333333	0.0666666666667	226.49086713790894	
8	203.55740118026733	pulse	0	t		-1.0	1.0	-1.0	152.0	0.0333333333333	0.1333333333333	0.0666666666667	228.0908842086792	
8	203.8323221206665	response	0	r		-1.0	1.0	-1.0	152.0	0.0333333333333	0.1333333333333	0.0666666666667	228.36580514907837	
8	205.1574010848999	pulse	0	t		-1.0	1.0	-1.0	152.0	0.0333333333333	0.1333333333333	0.0666666666667	229.69088411331177	
8	206.7574920654297	pulse	0	t		-1.0	1.0	-1.0	152.0	0.0333333333333	0.1333333333333	0.0666666666667	231.29097509384155	
9	206.7821671962738	stim	0		0	0.16666667	0.0666666666667	180.0	168.0	0.0333333333333	0.1333333333333	0.0666666666667	231.31565022468567	23.999943017959595
9	208.35297322273254	pulse	0	t		0.16666667	0.0666666666667	180.0	168.0	0.0333333333333	0.1333333333333	0.0666666666667	232.8864562511444	
9	209.95278906822205	pulse	0	t		0.16666667	0.0666666666667	180.0	168.0	0.0333333333333	0.1333333333333	0.0666666666667	234.4862720966339	
9	211.55374121665955	pulse	0	t		0.16666667	0.0666666666667	180.0	168.0	0.0333333333333	0.1333333333333	0.0666666666667	236.0872242450714	
9	213.01665711402893	response	0	r		0.16666667	0.0666666666667	180.0	168.0	0.0333333333333	0.1333333333333	0.0666666666667	237.5501401424408	
9	213.15346908569336	pulse	0	t		0.16666667	0.0666666666667	180.0	168.0	0.0333333333333	0.1333333333333	0.0666666666667	237.68695211410522	
9	214.75385117530823	pulse	0	t		0.16666667	0.0666666666667	180.0	168.0	0.0333333333333	0.1333333333333	0.0666666666667	239.2873342037201	
9	214.88336300849915	response	0	r		0.16666667	0.0666666666667	180.0	168.0	0.0333333333333	0.1333333333333	0.0666666666667	239.416846036911	
9	216.35346913337708	pulse	0	t		0.16666667	0.0666666666667	180.0	168.0	0.0333333333333	0.1333333333333	0.0666666666667	240.88695216178894	
9	217.9533360004425	pulse	0	t		0.16666667	0.0666666666667	180.0	168.0	0.0333333333333	0.1333333333333	0.0666666666667	242.48681902885437	
9	219.5531930923462	pulse	0	t		0.16666667	0.0666666666667	180.0	168.0	0.0333333333333	0.1333333333333	0.0666666666667	244.08667612075806	
9	221.1073281764984	response	0	r		0.16666667	0.0666666666667	180.0	168.0	0.0333333333333	0.1333333333333	0.0666666666667	245.64081120491028	
9	221.15294814109802	pulse	0	t		0.16666667	0.0666666666667	180.0	168.0	0.0333333333333	0.1333333333333	0.0666666666667	245.6864311695099	
9	222.7530710697174	pulse	0	t		0.16666667	0.0666666666667	180.0	168.0	0.0333333333333	0.1333333333333	0.0666666666667	247.28655409812927	
9	223.82899403572083	response	0	r		0.16666667	0.0666666666667	180.0	168.0	0.0333333333333	0.1333333333333	0.0666666666667	248.3624770641327	
9	224.3529200553894	pulse	0	t		0.16666667	0.0666666666667	180.0	168.0	0.0333333333333	0.1333333333333	0.0666666666667	248.88640308380127	
9	225.95385909080505	pulse	0	t		0.16666667	0.0666666666667	180.0	168.0	0.0333333333333	0.1333333333333	0.0666666666667	250.48734211921692	
9	227.25278520584106	response	0	r		0.16666667	0.0666666666667	180.0	168.0	0.0333333333333	0.1333333333333	0.0666666666667	251.78626823425293	
9	227.55369305610657	pulse	0	t		0.16666667	0.0666666666667	180.0	168.0	0.0333333333333	0.1333333333333	0.0666666666667	252.08717608451843	
9	229.1536180973053	pulse	0	t		0.16666667	0.0666666666667	180.0	168.0	0.0333333333333	0.1333333333333	0.0666666666667	253.68710112571716	
9	229.29947018623352	response	0	r		0.16666667	0.0666666666667	180.0	168.0	0.0333333333333	0.1333333333333	0.0666666666667	253.83295321464539	
9	230.7536060810089	pulse	0	t		0.16666667	0.0666666666667	180.0	168.0	0.0333333333333	0.1333333333333	0.0666666666667	255.28708910942078	
10	230.7821102142334	stim	0		0	0.16666667	0.0666666666667	90.0	192.0	0.0333333333333	0.1333333333333	0.0666666666667	255.31559324264526	23.99149489402771
10	231.55453419685364	response	0	r		0.16666667	0.0666666666667	90.0	192.0	0.0333333333333	0.1333333333333	0.0666666666667	256.0880172252655	
10	232.35354900360107	pulse	0	t		0.16666667	0.0666666666667	90.0	192.0	0.0333333333333	0.1333333333333	0.0666666666667	256.88703203201294	
10	233.9535059928894	pulse	0	t		0.16666667	0.0666666666667	90.0	192.0	0.0333333333333	0.1333333333333	0.0666666666667	258.48698902130127	
10	234.70726609230042	response	0	r		0.16666667	0.0666666666667	90.0	192.0	0.0333333333333	0.1333333333333	0.0666666666667	259.2407491207123	
10	235.55331921577454	pulse	0	t		0.16666667	0.0666666666667	90.0	192.0	0.0333333333333	0.1333333333333	0.0666666666667	260.0868022441864	
10	237.15318703651428	pulse	0	t		0.16666667	0.0666666666667	90.0	192.0	0.0333333333333	0.1333333333333	0.0666666666667	261.68667006492615	
10	238.1350541114807	response	0	r		0.16666667	0.0666666666667	90.0	192.0	0.0333333333333	0.1333333333333	0.0666666666667	262.6685371398926	
10	238.75301599502563	pulse	0	t		0.16666667	0.0666666666667	90.0	192.0	0.0333333333333	0.1333333333333	0.0666666666667	263.2864990234375	
10	240.35293412208557	pulse	0	t		0.16666667	0.0666666666667	90.0	192.0	0.0333333333333	0.1333333333333	0.0666666666667	264.88641715049744	
10	241.95389699935913	pulse	0	t		0.16666667	0.0666666666667	90.0	192.0	0.0333333333333	0.1333333333333	0.0666666666667	266.487380027771	
10	243.55378317832947	pulse	0	t		0.16666667	0.0666666666667	90.0	192.0	0.0333333333333	0.1333333333333	0.0666666666667	268.08726620674133	
10	245.01466512680054	response	0	r		0.16666667	0.0666666666667	90.0	192.0	0.0333333333333	0.1333333333333	0.0666666666667	269.5481481552124	
10	245.15349221229553	pulse	0	t		0.16666667	0.0666666666667	90.0	192.0	0.0333333333333	0.1333333333333	0.0666666666667	269.6869752407074	
10	246.75355315208435	pulse	0	t		0.16666667	0.0666666666667	90.0	192.0	0.0333333333333	0.1333333333333	0.0666666666667	271.2870361804962	
10	247.35446500778198	response	0	r		0.16666667	0.0666666666667	90.0	192.0	0.0333333333333	0.1333333333333	0.0666666666667	271.88794803619385	
10	248.35346817970276	pulse	0	t		0.16666667	0.0666666666667	90.0	192.0	0.0333333333333	0.1333333333333	0.0666666666667	272.8869512081146	
10	249.953378200531	pulse	0	t		0.16666667	0.0666666666667	90.0	192.0	0.0333333333333	0.1333333333333	0.0666666666667	274.48686122894287	
10	251.55330109596252	pulse	0	t		0.16666667	0.0666666666667	90.0	192.0	0.0333333333333	0.1333333333333	0.0666666666667	276.0867841243744	
10	253.15321707725525	pulse	0	t		0.16666667	0.0666666666667	90.0	192.0	0.0333333333333	0.1333333333333	0.0666666666667	277.6867001056671	
10	254.75311422348022	pulse	0	t		0.16666667	0.0666666666667	90.0	192.0	0.0333333333333	0.1333333333333	0.0666666666667	279.2865972518921	
11	254.7736051082611	stim	0		0	-1.0	1.0	-1.0	216.0	0.0333333333333	0.1333333333333	0.0666666666667	279.307088136673	16.008296012878418
11	254.8737931251526	response	0	r		-1.0	1.0	-1.0	216.0	0.0333333333333	0.1333333333333	0.0666666666667	279.40727615356445	
11	256.3571491241455	pulse	0	t		-1.0	1.0	-1.0	216.0	0.0333333333333	0.1333333333333	0.0666666666667	280.8906321525574	
11	257.9571192264557	pulse	0	t		-1.0	1.0	-1.0	216.0	0.0333333333333	0.1333333333333	0.0666666666667	282.49060225486755	
11	257.9608631134033	response	0	r		-1.0	1.0	-1.0	216.0	0.0333333333333	0.1333333333333	0.0666666666667	282.4943461418152	
11	259.5570900440216	pulse	0	t		-1.0	1.0	-1.0	216.0	0.0333333333333	0.1333333333333	0.0666666666667	284.0905730724335	
11	261.15713906288147	pulse	0	t		-1.0	1.0	-1.0	216.0	0.0333333333333	0.1333333333333	0.0666666666667	285.69062209129333	
11	262.7570312023163	pulse	0	t		-1.0	1.0	-1.0	216.0	0.0333333333333	0.1333333333333	0.0666666666667	287.29051423072815	
11	264.3570771217346	pulse	0	t		-1.0	1.0	-1.0	216.0	0.0333333333333	0.1333333333333	0.0666666666667	288.8905601501465	
11	265.95707416534424	pulse	0	t		-1.0	1.0	-1.0	216.0	0.0333333333333	0.1333333333333	0.0666666666667	290.4905571937561	
11	267.55711817741394	pulse	0	t		-1.0	1.0	-1.0	216.0	0.0333333333333	0.1333333333333	0.0666666666667	292.0906012058258	
11	269.1570780277252	pulse	0	t		-1.0	1.0	-1.0	216.0	0.0333333333333	0.1333333333333	0.0666666666667	293.6905610561371	
11	270.75710010528564	pulse	0	t		-1.0	1.0	-1.0	216.0	0.0333333333333	0.1333333333333	0.0666666666667	295.2905831336975	
12	270.7819011211395	stim	0		0	0.16666667	0.0666666666667	0.0	232.0	0.0333333333333	0.1333333333333	0.0666666666667	295.3153841495514	23.999852895736694
12	272.353107213974	pulse	0	t		0.16666667	0.0666666666667	0.0	232.0	0.0333333333333	0.1333333333333	0.0666666666667	296.88659024238586	
12	273.40793919563293	response	0	r		0.16666667	0.0666666666667	0.0	232.0	0.0333333333333	0.1333333333333	0.0666666666667	297.9414222240448	
12	273.95386004447937	pulse	0	t		0.16666667	0.0666666666667	0.0	232.0	0.0333333333333	0.1333333333333	0.0666666666667	298.48734307289124	
12	275.55381512641907	pulse	0	t		0.16666667	0.0666666666667	0.0	232.0	0.0333333333333	0.1333333333333	0.0666666666667	300.08729815483093	
12	276.9702010154724	response	0	r		0.16666667	0.0666666666667	0.0	232.0	0.0333333333333	0.1333333333333	0.0666666666667	301.5036840438843	
12	277.1536910533905	pulse	0	t		0.16666667	0.0666666666667	0.0	232.0	0.0333333333333	0.1333333333333	0.0666666666667	301.68717408180237	
12	278.7536551952362	pulse	0	t		0.16666667	0.0666666666667	0.0	232.0	0.0333333333333	0.1333333333333	0.0666666666667	303.28713822364807	
12	279.46958017349243	response	0	r		0.16666667	0.0666666666667	0.0	232.0	0.0333333333333	0.1333333333333	0.0666666666667	304.0030632019043	
12	280.3535521030426	pulse	0	t		0.16666667	0.0666666666667	0.0	232.0	0.0333333333333	0.1333333333333	0.0666666666667	304.88703513145447	
12	281.9534480571747	pulse	0	t		0.16666667	0.0666666666667	0.0	232.0	0.0333333333333	0.1333333333333	0.0666666666667	306.48693108558655	
12	283.45627307891846	response	0	r		0.16666667	0.0666666666667	0.0	232.0	0.0333333333333	0.1333333333333	0.0666666666667	307.9897561073303	
12	283.5531620979309	pulse	0	t		0.16666667	0.0666666666667	0.0	232.0	0.0333333333333	0.1333333333333	0.0666666666667	308.0866451263428	
12	285.1531960964203	pulse	0	t		0.16666667	0.0666666666667	0.0	232.0	0.0333333333333	0.1333333333333	0.0666666666667	309.68667912483215	
12	286.7531590461731	pulse	0	t		0.16666667	0.0666666666667	0.0	232.0	0.0333333333333	0.1333333333333	0.0666666666667	311.28664207458496	
12	288.35300302505493	pulse	0	t		0.16666667	0.0666666666667	0.0	232.0	0.0333333333333	0.1333333333333	0.0666666666667	312.8864860534668	
12	288.368625164032	response	0	r		0.16666667	0.0666666666667	0.0	232.0	0.0333333333333	0.1333333333333	0.0666666666667	312.90210819244385	
12	289.9529311656952	pulse	0	t		0.16666667	0.0666666666667	0.0	232.0	0.0333333333333	0.1333333333333	0.0666666666667	314.48641419410706	
12	291.5538320541382	pulse	0	t		0.16666667	0.0666666666667	0.0	232.0	0.0333333333333	0.1333333333333	0.0666666666667	316.08731508255005	
12	292.6237289905548	response	0	r		0.16666667	0.0666666666667	0.0	232.0	0.0333333333333	0.1333333333333	0.0666666666667	317.1572120189667	
12	293.15377020835876	pulse	0	t		0.16666667	0.0666666666667	0.0	232.0	0.0333333333333	0.1333333333333	0.0666666666667	317.68725323677063	
12	294.7536451816559	pulse	0	t		0.16666667	0.0666666666667	0.0	232.0	0.0333333333333	0.1333333333333	0.0666666666667	319.28712821006775	
13	294.7817540168762	stim	0		0	0.16666667	0.0666666666667	270.0	256.0	0.0333333333333	0.1333333333333	0.0666666666667	319.3152370452881	23.999967098236084
13	296.29657220840454	response	0	r		0.16666667	0.0666666666667	270.0	256.0	0.0333333333333	0.1333333333333	0.0666666666667	320.8300552368164	
13	296.35337114334106	pulse	0	t		0.16666667	0.0666666666667	270.0	256.0	0.0333333333333	0.1333333333333	0.0666666666667	320.88685417175293	
13	297.9534811973572	pulse	0	t		0.16666667	0.0666666666667	270.0	256.0	0.0333333333333	0.1333333333333	0.0666666666667	322.48696422576904	
13	299.5533962249756	pulse	0	t		0.16666667	0.0666666666667	270.0	256.0	0.0333333333333	0.1333333333333	0.0666666666667	324.08687925338745	
13	301.1533191204071	pulse	0	t		0.16666667	0.0666666666667	270.0	256.0	0.0333333333333	0.1333333333333	0.0666666666667	325.68680214881897	
13	302.75312900543213	pulse	0	t		0.16666667	0.0666666666667	270.0	256.0	0.0333333333333	0.1333333333333	0.0666666666667	327.286612033844	
13	304.35310101509094	pulse	0	t		0.16666667	0.0666666666667	270.0	256.0	0.0333333333333	0.1333333333333	0.0666666666667	328.8865840435028	
13	305.80400705337524	response	0	r		0.16666667	0.0666666666667	270.0	256.0	0.0333333333333	0.1333333333333	0.0666666666667	330.3374900817871	
13	305.95287919044495	pulse	0	t		0.16666667	0.0666666666667	270.0	256.0	0.0333333333333	0.1333333333333	0.0666666666667	330.4863622188568	
13	307.5539400577545	pulse	0	t		0.16666667	0.0666666666667	270.0	256.0	0.0333333333333	0.1333333333333	0.0666666666667	332.0874230861664	
13	309.153822183609	pulse	0	t		0.16666667	0.0666666666667	270.0	256.0	0.0333333333333	0.1333333333333	0.0666666666667	333.6873052120209	
13	310.7537431716919	pulse	0	t		0.16666667	0.0666666666667	270.0	256.0	0.0333333333333	0.1333333333333	0.0666666666667	335.28722620010376	
13	312.35367703437805	pulse	0	t		0.16666667	0.0666666666667	270.0	256.0	0.0333333333333	0.1333333333333	0.0666666666667	336.8871600627899	
13	313.95354104042053	pulse	0	t		0.16666667	0.0666666666667	270.0	256.0	0.0333333333333	0.1333333333333	0.0666666666667	338.4870240688324	
13	314.7754499912262	response	0	r		0.16666667	0.0666666666667	270.0	256.0	0.0333333333333	0.1333333333333	0.0666666666667	339.30893301963806	
13	315.55335807800293	pulse	0	t		0.16666667	0.0666666666667	270.0	256.0	0.0333333333333	0.1333333333333	0.0666666666667	340.0868411064148	
13	317.15333914756775	pulse	0	t		0.16666667	0.0666666666667	270.0	256.0	0.0333333333333	0.1333333333333	0.0666666666667	341.6868221759796	
13	318.1922550201416	response	0	r		0.16666667	0.0666666666667	270.0	256.0	0.0333333333333	0.1333333333333	0.0666666666667	342.72573804855347	
13	318.75317215919495	pulse	0	t		0.16666667	0.0666666666667	270.0	256.0	0.0333333333333	0.1333333333333	0.0666666666667	343.2866551876068	
14	318.7817211151123	stim	0		0								343.31520414352417	24.341567039489746
14	320.3570132255554	pulse	0	t									344.8904962539673	
14	321.9569010734558	pulse	0	t									346.4903841018677	
14	323.5567581653595	pulse	0	t									348.09024119377136	
14	325.15683102607727	pulse	0	t									349.69031405448914	
14	326.7568120956421	pulse	0	t									351.29029512405396	
14	328.3568181991577	pulse	0	t									352.8903012275696	
14	329.956748008728	pulse	0	t									354.4902310371399	
14	331.5567831993103	pulse	0	t									356.09026622772217	
14	333.1567471027374	pulse	0	t									357.6902301311493	
14	334.7567641735077	pulse	0	t									359.29024720191956	
14	336.3567850589752	pulse	0	t									360.8902680873871	
14	337.9562621116638	pulse	0	t									362.4897451400757	
14	339.5564591884613	pulse	0	t									364.08994221687317	
14	341.1566731929779	pulse	0	t									365.69015622138977	
14	342.756628036499	pulse	0	t									367.2901110649109	
