trial_nr	onset	event_type	phase	response	nr_frames	bar_width	bar_refresh_time	bar_direction	start_time	bar_blank_duration	bar_blank_interval	bg_stim_refresh_time	onset_abs	duration
0	0.1578540802001953	stim	0		0								39.54917097091675	3.0753769874572754
0	3.225188970565796	response	0	space									42.61650586128235	
1	3.2332310676574707	stim	0		0								42.62454795837402	38.49934792518616
1	41.719446897506714	pulse	0	t									81.11076378822327	
1	41.73257899284363	stim	1		0								81.12389588356018	0.0007278919219970703
1	41.733306884765625	stim	0		0								81.12462377548218	23.999802112579346
1	43.31657791137695	pulse	0	t									82.7078948020935	
1	44.91656708717346	pulse	0	t									84.30788397789001	
1	45.49144697189331	response	0	e									84.88276386260986	
1	46.5164840221405	pulse	0	t									85.90780091285706	
1	48.11661696434021	pulse	0	t									87.50793385505676	
1	49.71647310256958	pulse	0	t									89.10778999328613	
1	51.31650996208191	pulse	0	t									90.70782685279846	
1	52.91646099090576	pulse	0	t									92.30777788162231	
1	53.44330811500549	response	0	e									92.83462500572205	
1	54.51648807525635	pulse	0	t									93.9078049659729	
1	56.116446018218994	pulse	0	t									95.50776290893555	
1	57.71654009819031	pulse	0	t									97.10785698890686	
1	59.31641697883606	pulse	0	t									98.70773386955261	
1	60.91660690307617	pulse	0	t									100.30792379379272	
1	62.51639699935913	pulse	0	t									101.90771389007568	
1	63.768316984176636	response	0	e									103.15963387489319	
1	64.11641693115234	pulse	0	t									103.5077338218689	
1	65.71634602546692	pulse	0	t									105.10766291618347	
2	65.73310899734497	stim	0		0	0.16666667	0.0666666666667	270.0	24.0	0.0333333333333	0.1333333333333	0.0666666666667	105.12442588806152	23.999701976776123
2	67.31422591209412	pulse	0	t		0.16666667	0.0666666666667	270.0	24.0	0.0333333333333	0.1333333333333	0.0666666666667	106.70554280281067	
2	68.91416192054749	pulse	0	t		0.16666667	0.0666666666667	270.0	24.0	0.0333333333333	0.1333333333333	0.0666666666667	108.30547881126404	
2	69.96702599525452	response	0	e		0.16666667	0.0666666666667	270.0	24.0	0.0333333333333	0.1333333333333	0.0666666666667	109.35834288597107	
2	70.51399302482605	pulse	0	t		0.16666667	0.0666666666667	270.0	24.0	0.0333333333333	0.1333333333333	0.0666666666667	109.9053099155426	
2	72.11391305923462	pulse	0	t		0.16666667	0.0666666666667	270.0	24.0	0.0333333333333	0.1333333333333	0.0666666666667	111.50522994995117	
2	73.71381688117981	pulse	0	t		0.16666667	0.0666666666667	270.0	24.0	0.0333333333333	0.1333333333333	0.0666666666667	113.10513377189636	
2	75.31370306015015	pulse	0	t		0.16666667	0.0666666666667	270.0	24.0	0.0333333333333	0.1333333333333	0.0666666666667	114.7050199508667	
2	75.94161796569824	response	0	e		0.16666667	0.0666666666667	270.0	24.0	0.0333333333333	0.1333333333333	0.0666666666667	115.3329348564148	
2	76.91365003585815	pulse	0	t		0.16666667	0.0666666666667	270.0	24.0	0.0333333333333	0.1333333333333	0.0666666666667	116.3049669265747	
2	78.51354789733887	pulse	0	t		0.16666667	0.0666666666667	270.0	24.0	0.0333333333333	0.1333333333333	0.0666666666667	117.90486478805542	
2	80.05422496795654	response	0	e		0.16666667	0.0666666666667	270.0	24.0	0.0333333333333	0.1333333333333	0.0666666666667	119.4455418586731	
2	80.11310505867004	pulse	0	t		0.16666667	0.0666666666667	270.0	24.0	0.0333333333333	0.1333333333333	0.0666666666667	119.5044219493866	
2	81.71320104598999	pulse	0	t		0.16666667	0.0666666666667	270.0	24.0	0.0333333333333	0.1333333333333	0.0666666666667	121.10451793670654	
2	83.31414103507996	pulse	0	t		0.16666667	0.0666666666667	270.0	24.0	0.0333333333333	0.1333333333333	0.0666666666667	122.70545792579651	
2	84.91404294967651	pulse	0	t		0.16666667	0.0666666666667	270.0	24.0	0.0333333333333	0.1333333333333	0.0666666666667	124.30535984039307	
2	85.48802709579468	response	0	e		0.16666667	0.0666666666667	270.0	24.0	0.0333333333333	0.1333333333333	0.0666666666667	124.87934398651123	
2	86.51400208473206	pulse	0	t		0.16666667	0.0666666666667	270.0	24.0	0.0333333333333	0.1333333333333	0.0666666666667	125.90531897544861	
2	88.11389398574829	pulse	0	t		0.16666667	0.0666666666667	270.0	24.0	0.0333333333333	0.1333333333333	0.0666666666667	127.50521087646484	
2	89.71375107765198	pulse	0	t		0.16666667	0.0666666666667	270.0	24.0	0.0333333333333	0.1333333333333	0.0666666666667	129.10506796836853	
3	89.7328109741211	stim	0		0	0.16666667	0.0666666666667	0.0	48.0	0.0333333333333	0.1333333333333	0.0666666666667	129.12412786483765	24.008196115493774
3	89.83672404289246	response	0	e		0.16666667	0.0666666666667	0.0	48.0	0.0333333333333	0.1333333333333	0.0666666666667	129.228040933609	
3	91.31362795829773	pulse	0	t		0.16666667	0.0666666666667	0.0	48.0	0.0333333333333	0.1333333333333	0.0666666666667	130.70494484901428	
3	92.67356705665588	response	0	e		0.16666667	0.0666666666667	0.0	48.0	0.0333333333333	0.1333333333333	0.0666666666667	132.06488394737244	
3	92.9133710861206	pulse	0	t		0.16666667	0.0666666666667	0.0	48.0	0.0333333333333	0.1333333333333	0.0666666666667	132.30468797683716	
3	94.51338505744934	pulse	0	t		0.16666667	0.0666666666667	0.0	48.0	0.0333333333333	0.1333333333333	0.0666666666667	133.9047019481659	
3	96.11330103874207	pulse	0	t		0.16666667	0.0666666666667	0.0	48.0	0.0333333333333	0.1333333333333	0.0666666666667	135.50461792945862	
3	97.71430397033691	pulse	0	t		0.16666667	0.0666666666667	0.0	48.0	0.0333333333333	0.1333333333333	0.0666666666667	137.10562086105347	
3	98.71715497970581	response	0	e		0.16666667	0.0666666666667	0.0	48.0	0.0333333333333	0.1333333333333	0.0666666666667	138.10847187042236	
3	99.3140959739685	pulse	0	t		0.16666667	0.0666666666667	0.0	48.0	0.0333333333333	0.1333333333333	0.0666666666667	138.70541286468506	
3	100.9140510559082	pulse	0	t		0.16666667	0.0666666666667	0.0	48.0	0.0333333333333	0.1333333333333	0.0666666666667	140.30536794662476	
3	100.98283004760742	response	0	e		0.16666667	0.0666666666667	0.0	48.0	0.0333333333333	0.1333333333333	0.0666666666667	140.37414693832397	
3	102.51394295692444	pulse	0	t		0.16666667	0.0666666666667	0.0	48.0	0.0333333333333	0.1333333333333	0.0666666666667	141.905259847641	
3	104.11383390426636	pulse	0	t		0.16666667	0.0666666666667	0.0	48.0	0.0333333333333	0.1333333333333	0.0666666666667	143.5051507949829	
3	104.64779305458069	response	0	e		0.16666667	0.0666666666667	0.0	48.0	0.0333333333333	0.1333333333333	0.0666666666667	144.03910994529724	
3	105.71373200416565	pulse	0	t		0.16666667	0.0666666666667	0.0	48.0	0.0333333333333	0.1333333333333	0.0666666666667	145.1050488948822	
3	107.31363987922668	pulse	0	t		0.16666667	0.0666666666667	0.0	48.0	0.0333333333333	0.1333333333333	0.0666666666667	146.70495676994324	
3	107.92356991767883	response	0	e		0.16666667	0.0666666666667	0.0	48.0	0.0333333333333	0.1333333333333	0.0666666666667	147.31488680839539	
3	108.9134750366211	pulse	0	t		0.16666667	0.0666666666667	0.0	48.0	0.0333333333333	0.1333333333333	0.0666666666667	148.30479192733765	
3	110.41543197631836	response	0	e		0.16666667	0.0666666666667	0.0	48.0	0.0333333333333	0.1333333333333	0.0666666666667	149.8067488670349	
3	110.51332402229309	pulse	0	t		0.16666667	0.0666666666667	0.0	48.0	0.0333333333333	0.1333333333333	0.0666666666667	149.90464091300964	
3	112.1133120059967	pulse	0	t		0.16666667	0.0666666666667	0.0	48.0	0.0333333333333	0.1333333333333	0.0666666666667	151.50462889671326	
3	113.71329808235168	pulse	0	t		0.16666667	0.0666666666667	0.0	48.0	0.0333333333333	0.1333333333333	0.0666666666667	153.10461497306824	
4	113.74100708961487	stim	0		0	-1.0	1.0	-1.0	72.0	0.0333333333333	0.1333333333333	0.0666666666667	153.13232398033142	15.99163293838501
4	115.316232919693	pulse	0	t		-1.0	1.0	-1.0	72.0	0.0333333333333	0.1333333333333	0.0666666666667	154.70754981040955	
4	115.80785298347473	response	0	e		-1.0	1.0	-1.0	72.0	0.0333333333333	0.1333333333333	0.0666666666667	155.19916987419128	
4	116.91613101959229	pulse	0	t		-1.0	1.0	-1.0	72.0	0.0333333333333	0.1333333333333	0.0666666666667	156.30744791030884	
4	118.51618504524231	pulse	0	t		-1.0	1.0	-1.0	72.0	0.0333333333333	0.1333333333333	0.0666666666667	157.90750193595886	
4	119.02450895309448	response	0	e		-1.0	1.0	-1.0	72.0	0.0333333333333	0.1333333333333	0.0666666666667	158.41582584381104	
4	120.11622095108032	pulse	0	t		-1.0	1.0	-1.0	72.0	0.0333333333333	0.1333333333333	0.0666666666667	159.50753784179688	
4	121.49963593482971	response	0	e		-1.0	1.0	-1.0	72.0	0.0333333333333	0.1333333333333	0.0666666666667	160.89095282554626	
4	121.71605896949768	pulse	0	t		-1.0	1.0	-1.0	72.0	0.0333333333333	0.1333333333333	0.0666666666667	161.10737586021423	
4	123.31574296951294	pulse	0	t		-1.0	1.0	-1.0	72.0	0.0333333333333	0.1333333333333	0.0666666666667	162.7070598602295	
4	124.91588306427002	pulse	0	t		-1.0	1.0	-1.0	72.0	0.0333333333333	0.1333333333333	0.0666666666667	164.30719995498657	
4	126.51610994338989	pulse	0	t		-1.0	1.0	-1.0	72.0	0.0333333333333	0.1333333333333	0.0666666666667	165.90742683410645	
4	127.03281593322754	response	0	e		-1.0	1.0	-1.0	72.0	0.0333333333333	0.1333333333333	0.0666666666667	166.4241328239441	
4	128.11613392829895	pulse	0	t		-1.0	1.0	-1.0	72.0	0.0333333333333	0.1333333333333	0.0666666666667	167.5074508190155	
4	129.7160758972168	pulse	0	t		-1.0	1.0	-1.0	72.0	0.0333333333333	0.1333333333333	0.0666666666667	169.10739278793335	
4	129.71961402893066	response	0	e		-1.0	1.0	-1.0	72.0	0.0333333333333	0.1333333333333	0.0666666666667	169.11093091964722	
5	129.73264002799988	stim	0		0	0.16666667	0.0666666666667	90.0	88.0	0.0333333333333	0.1333333333333	0.0666666666667	169.12395691871643	23.9998300075531
5	131.3143138885498	pulse	0	t		0.16666667	0.0666666666667	90.0	88.0	0.0333333333333	0.1333333333333	0.0666666666667	170.70563077926636	
5	132.6490819454193	response	0	e		0.16666667	0.0666666666667	90.0	88.0	0.0333333333333	0.1333333333333	0.0666666666667	172.04039883613586	
5	132.91396689414978	pulse	0	t		0.16666667	0.0666666666667	90.0	88.0	0.0333333333333	0.1333333333333	0.0666666666667	172.30528378486633	
5	134.5139970779419	pulse	0	t		0.16666667	0.0666666666667	90.0	88.0	0.0333333333333	0.1333333333333	0.0666666666667	173.90531396865845	
5	136.11384797096252	pulse	0	t		0.16666667	0.0666666666667	90.0	88.0	0.0333333333333	0.1333333333333	0.0666666666667	175.50516486167908	
5	136.7993040084839	response	0	e		0.16666667	0.0666666666667	90.0	88.0	0.0333333333333	0.1333333333333	0.0666666666667	176.19062089920044	
5	137.71374106407166	pulse	0	t		0.16666667	0.0666666666667	90.0	88.0	0.0333333333333	0.1333333333333	0.0666666666667	177.1050579547882	
5	139.31370401382446	pulse	0	t		0.16666667	0.0666666666667	90.0	88.0	0.0333333333333	0.1333333333333	0.0666666666667	178.70502090454102	
5	140.86756992340088	response	0	e		0.16666667	0.0666666666667	90.0	88.0	0.0333333333333	0.1333333333333	0.0666666666667	180.25888681411743	
5	140.91340398788452	pulse	0	t		0.16666667	0.0666666666667	90.0	88.0	0.0333333333333	0.1333333333333	0.0666666666667	180.30472087860107	
5	142.51358008384705	pulse	0	t		0.16666667	0.0666666666667	90.0	88.0	0.0333333333333	0.1333333333333	0.0666666666667	181.9048969745636	
5	144.11341905593872	pulse	0	t		0.16666667	0.0666666666667	90.0	88.0	0.0333333333333	0.1333333333333	0.0666666666667	183.50473594665527	
5	145.7133390903473	pulse	0	t		0.16666667	0.0666666666667	90.0	88.0	0.0333333333333	0.1333333333333	0.0666666666667	185.10465598106384	
5	147.0032958984375	response	0	e		0.16666667	0.0666666666667	90.0	88.0	0.0333333333333	0.1333333333333	0.0666666666667	186.39461278915405	
5	147.31411600112915	pulse	0	t		0.16666667	0.0666666666667	90.0	88.0	0.0333333333333	0.1333333333333	0.0666666666667	186.7054328918457	
5	148.91411590576172	pulse	0	t		0.16666667	0.0666666666667	90.0	88.0	0.0333333333333	0.1333333333333	0.0666666666667	188.30543279647827	
5	149.5410270690918	response	0	e		0.16666667	0.0666666666667	90.0	88.0	0.0333333333333	0.1333333333333	0.0666666666667	188.93234395980835	
5	150.51403498649597	pulse	0	t		0.16666667	0.0666666666667	90.0	88.0	0.0333333333333	0.1333333333333	0.0666666666667	189.90535187721252	
5	152.11393308639526	pulse	0	t		0.16666667	0.0666666666667	90.0	88.0	0.0333333333333	0.1333333333333	0.0666666666667	191.50524997711182	
5	152.3326289653778	response	0	e		0.16666667	0.0666666666667	90.0	88.0	0.0333333333333	0.1333333333333	0.0666666666667	191.72394585609436	
5	153.71377992630005	pulse	0	t		0.16666667	0.0666666666667	90.0	88.0	0.0333333333333	0.1333333333333	0.0666666666667	193.1050968170166	
6	153.73247003555298	stim	0		0	0.16666667	0.0666666666667	180.0	112.0	0.0333333333333	0.1333333333333	0.0666666666667	193.12378692626953	24.008314847946167
6	155.31373405456543	pulse	0	t		0.16666667	0.0666666666667	180.0	112.0	0.0333333333333	0.1333333333333	0.0666666666667	194.70505094528198	
6	156.69164991378784	response	0	e		0.16666667	0.0666666666667	180.0	112.0	0.0333333333333	0.1333333333333	0.0666666666667	196.0829668045044	
6	156.9135820865631	pulse	0	t		0.16666667	0.0666666666667	180.0	112.0	0.0333333333333	0.1333333333333	0.0666666666667	196.30489897727966	
6	158.51359009742737	pulse	0	t		0.16666667	0.0666666666667	180.0	112.0	0.0333333333333	0.1333333333333	0.0666666666667	197.90490698814392	
6	160.11346101760864	pulse	0	t		0.16666667	0.0666666666667	180.0	112.0	0.0333333333333	0.1333333333333	0.0666666666667	199.5047779083252	
6	161.71336603164673	pulse	0	t		0.16666667	0.0666666666667	180.0	112.0	0.0333333333333	0.1333333333333	0.0666666666667	201.10468292236328	
6	163.31425094604492	pulse	0	t		0.16666667	0.0666666666667	180.0	112.0	0.0333333333333	0.1333333333333	0.0666666666667	202.70556783676147	
6	163.9791669845581	response	0	e		0.16666667	0.0666666666667	180.0	112.0	0.0333333333333	0.1333333333333	0.0666666666667	203.37048387527466	
6	164.9141230583191	pulse	0	t		0.16666667	0.0666666666667	180.0	112.0	0.0333333333333	0.1333333333333	0.0666666666667	204.30543994903564	
6	166.5140619277954	pulse	0	t		0.16666667	0.0666666666667	180.0	112.0	0.0333333333333	0.1333333333333	0.0666666666667	205.90537881851196	
6	168.11405897140503	pulse	0	t		0.16666667	0.0666666666667	180.0	112.0	0.0333333333333	0.1333333333333	0.0666666666667	207.50537586212158	
6	169.71385788917542	pulse	0	t		0.16666667	0.0666666666667	180.0	112.0	0.0333333333333	0.1333333333333	0.0666666666667	209.10517477989197	
6	169.81774592399597	response	0	e		0.16666667	0.0666666666667	180.0	112.0	0.0333333333333	0.1333333333333	0.0666666666667	209.20906281471252	
6	171.31383109092712	pulse	0	t		0.16666667	0.0666666666667	180.0	112.0	0.0333333333333	0.1333333333333	0.0666666666667	210.70514798164368	
6	172.91363310813904	pulse	0	t		0.16666667	0.0666666666667	180.0	112.0	0.0333333333333	0.1333333333333	0.0666666666667	212.3049499988556	
6	173.427649974823	response	0	e		0.16666667	0.0666666666667	180.0	112.0	0.0333333333333	0.1333333333333	0.0666666666667	212.81896686553955	
6	174.51365494728088	pulse	0	t		0.16666667	0.0666666666667	180.0	112.0	0.0333333333333	0.1333333333333	0.0666666666667	213.90497183799744	
6	176.1135220527649	pulse	0	t		0.16666667	0.0666666666667	180.0	112.0	0.0333333333333	0.1333333333333	0.0666666666667	215.50483894348145	
6	177.7133629322052	pulse	0	t		0.16666667	0.0666666666667	180.0	112.0	0.0333333333333	0.1333333333333	0.0666666666667	217.10467982292175	
7	177.74078488349915	stim	0		0	-1.0	1.0	-1.0	136.0	0.0333333333333	0.1333333333333	0.0666666666667	217.1321017742157	15.99990200996399
7	179.31543397903442	pulse	0	t		-1.0	1.0	-1.0	136.0	0.0333333333333	0.1333333333333	0.0666666666667	218.70675086975098	
7	179.99060606956482	response	0	e		-1.0	1.0	-1.0	136.0	0.0333333333333	0.1333333333333	0.0666666666667	219.38192296028137	
7	180.9160499572754	pulse	0	t		-1.0	1.0	-1.0	136.0	0.0333333333333	0.1333333333333	0.0666666666667	220.30736684799194	
7	182.51586294174194	pulse	0	t		-1.0	1.0	-1.0	136.0	0.0333333333333	0.1333333333333	0.0666666666667	221.9071798324585	
7	182.84915804862976	response	0	e		-1.0	1.0	-1.0	136.0	0.0333333333333	0.1333333333333	0.0666666666667	222.2404749393463	
7	184.11585998535156	pulse	0	t		-1.0	1.0	-1.0	136.0	0.0333333333333	0.1333333333333	0.0666666666667	223.50717687606812	
7	184.4510281085968	response	0	e		-1.0	1.0	-1.0	136.0	0.0333333333333	0.1333333333333	0.0666666666667	223.84234499931335	
7	185.71583890914917	pulse	0	t		-1.0	1.0	-1.0	136.0	0.0333333333333	0.1333333333333	0.0666666666667	225.10715579986572	
7	187.31580805778503	pulse	0	t		-1.0	1.0	-1.0	136.0	0.0333333333333	0.1333333333333	0.0666666666667	226.7071249485016	
7	188.9158959388733	pulse	0	t		-1.0	1.0	-1.0	136.0	0.0333333333333	0.1333333333333	0.0666666666667	228.30721282958984	
7	189.26583909988403	response	0	e		-1.0	1.0	-1.0	136.0	0.0333333333333	0.1333333333333	0.0666666666667	228.6571559906006	
7	190.51574802398682	pulse	0	t		-1.0	1.0	-1.0	136.0	0.0333333333333	0.1333333333333	0.0666666666667	229.90706491470337	
7	192.1156940460205	pulse	0	t		-1.0	1.0	-1.0	136.0	0.0333333333333	0.1333333333333	0.0666666666667	231.50701093673706	
7	193.71577310562134	pulse	0	t		-1.0	1.0	-1.0	136.0	0.0333333333333	0.1333333333333	0.0666666666667	233.1070899963379	
8	193.74068689346313	stim	0		0	-1.0	1.0	-1.0	152.0	0.0333333333333	0.1333333333333	0.0666666666667	233.1320037841797	15.99994707107544
8	194.81597208976746	response	0	e		-1.0	1.0	-1.0	152.0	0.0333333333333	0.1333333333333	0.0666666666667	234.207288980484	
8	195.31583309173584	pulse	0	t		-1.0	1.0	-1.0	152.0	0.0333333333333	0.1333333333333	0.0666666666667	234.7071499824524	
8	196.9156849384308	pulse	0	t		-1.0	1.0	-1.0	152.0	0.0333333333333	0.1333333333333	0.0666666666667	236.30700182914734	
8	197.57409000396729	response	0	e		-1.0	1.0	-1.0	152.0	0.0333333333333	0.1333333333333	0.0666666666667	236.96540689468384	
8	198.51588797569275	pulse	0	t		-1.0	1.0	-1.0	152.0	0.0333333333333	0.1333333333333	0.0666666666667	237.9072048664093	
8	200.11582589149475	pulse	0	t		-1.0	1.0	-1.0	152.0	0.0333333333333	0.1333333333333	0.0666666666667	239.5071427822113	
8	201.71576809883118	pulse	0	t		-1.0	1.0	-1.0	152.0	0.0333333333333	0.1333333333333	0.0666666666667	241.10708498954773	
8	203.315691947937	pulse	0	t		-1.0	1.0	-1.0	152.0	0.0333333333333	0.1333333333333	0.0666666666667	242.70700883865356	
8	204.9158489704132	pulse	0	t		-1.0	1.0	-1.0	152.0	0.0333333333333	0.1333333333333	0.0666666666667	244.30716586112976	
8	206.51582789421082	pulse	0	t		-1.0	1.0	-1.0	152.0	0.0333333333333	0.1333333333333	0.0666666666667	245.90714478492737	
8	206.90746092796326	response	0	e		-1.0	1.0	-1.0	152.0	0.0333333333333	0.1333333333333	0.0666666666667	246.2987778186798	
8	208.11585307121277	pulse	0	t		-1.0	1.0	-1.0	152.0	0.0333333333333	0.1333333333333	0.0666666666667	247.50716996192932	
8	209.71578907966614	pulse	0	t		-1.0	1.0	-1.0	152.0	0.0333333333333	0.1333333333333	0.0666666666667	249.1071059703827	
9	209.74063396453857	stim	0		0	0.16666667	0.0666666666667	180.0	168.0	0.0333333333333	0.1333333333333	0.0666666666667	249.13195085525513	23.991512060165405
9	211.3143401145935	pulse	0	t		0.16666667	0.0666666666667	180.0	168.0	0.0333333333333	0.1333333333333	0.0666666666667	250.70565700531006	
9	212.914244890213	pulse	0	t		0.16666667	0.0666666666667	180.0	168.0	0.0333333333333	0.1333333333333	0.0666666666667	252.30556178092957	
9	214.51413989067078	pulse	0	t		0.16666667	0.0666666666667	180.0	168.0	0.0333333333333	0.1333333333333	0.0666666666667	253.90545678138733	
9	215.13242411613464	response	0	e		0.16666667	0.0666666666667	180.0	168.0	0.0333333333333	0.1333333333333	0.0666666666667	254.5237410068512	
9	216.1140320301056	pulse	0	t		0.16666667	0.0666666666667	180.0	168.0	0.0333333333333	0.1333333333333	0.0666666666667	255.50534892082214	
9	217.71389198303223	pulse	0	t		0.16666667	0.0666666666667	180.0	168.0	0.0333333333333	0.1333333333333	0.0666666666667	257.1052088737488	
9	219.31384110450745	pulse	0	t		0.16666667	0.0666666666667	180.0	168.0	0.0333333333333	0.1333333333333	0.0666666666667	258.705157995224	
9	220.4137909412384	response	0	e		0.16666667	0.0666666666667	180.0	168.0	0.0333333333333	0.1333333333333	0.0666666666667	259.80510783195496	
9	220.91369891166687	pulse	0	t		0.16666667	0.0666666666667	180.0	168.0	0.0333333333333	0.1333333333333	0.0666666666667	260.3050158023834	
9	222.5137059688568	pulse	0	t		0.16666667	0.0666666666667	180.0	168.0	0.0333333333333	0.1333333333333	0.0666666666667	261.90502285957336	
9	224.11358904838562	pulse	0	t		0.16666667	0.0666666666667	180.0	168.0	0.0333333333333	0.1333333333333	0.0666666666667	263.5049059391022	
9	224.21440505981445	response	0	e		0.16666667	0.0666666666667	180.0	168.0	0.0333333333333	0.1333333333333	0.0666666666667	263.605721950531	
9	225.71347999572754	pulse	0	t		0.16666667	0.0666666666667	180.0	168.0	0.0333333333333	0.1333333333333	0.0666666666667	265.1047968864441	
9	227.24937796592712	response	0	e		0.16666667	0.0666666666667	180.0	168.0	0.0333333333333	0.1333333333333	0.0666666666667	266.6406948566437	
9	227.3142249584198	pulse	0	t		0.16666667	0.0666666666667	180.0	168.0	0.0333333333333	0.1333333333333	0.0666666666667	266.70554184913635	
9	228.91428399085999	pulse	0	t		0.16666667	0.0666666666667	180.0	168.0	0.0333333333333	0.1333333333333	0.0666666666667	268.30560088157654	
9	230.35319089889526	response	0	e		0.16666667	0.0666666666667	180.0	168.0	0.0333333333333	0.1333333333333	0.0666666666667	269.7445077896118	
9	230.51404905319214	pulse	0	t		0.16666667	0.0666666666667	180.0	168.0	0.0333333333333	0.1333333333333	0.0666666666667	269.9053659439087	
9	232.11403894424438	pulse	0	t		0.16666667	0.0666666666667	180.0	168.0	0.0333333333333	0.1333333333333	0.0666666666667	271.50535583496094	
9	232.65800404548645	response	0	e		0.16666667	0.0666666666667	180.0	168.0	0.0333333333333	0.1333333333333	0.0666666666667	272.049320936203	
9	233.7139539718628	pulse	0	t		0.16666667	0.0666666666667	180.0	168.0	0.0333333333333	0.1333333333333	0.0666666666667	273.10527086257935	
10	233.73214602470398	stim	0		0	0.16666667	0.0666666666667	90.0	192.0	0.0333333333333	0.1333333333333	0.0666666666667	273.12346291542053	23.99990200996399
10	235.31387591362	pulse	0	t		0.16666667	0.0666666666667	90.0	192.0	0.0333333333333	0.1333333333333	0.0666666666667	274.70519280433655	
10	235.4787139892578	response	0	e		0.16666667	0.0666666666667	90.0	192.0	0.0333333333333	0.1333333333333	0.0666666666667	274.87003087997437	
10	236.91374397277832	pulse	0	t		0.16666667	0.0666666666667	90.0	192.0	0.0333333333333	0.1333333333333	0.0666666666667	276.3050608634949	
10	238.51371788978577	pulse	0	t		0.16666667	0.0666666666667	90.0	192.0	0.0333333333333	0.1333333333333	0.0666666666667	277.9050347805023	
10	238.54254698753357	response	0	e		0.16666667	0.0666666666667	90.0	192.0	0.0333333333333	0.1333333333333	0.0666666666667	277.9338638782501	
10	240.11362099647522	pulse	0	t		0.16666667	0.0666666666667	90.0	192.0	0.0333333333333	0.1333333333333	0.0666666666667	279.5049378871918	
10	240.91355395317078	response	0	e		0.16666667	0.0666666666667	90.0	192.0	0.0333333333333	0.1333333333333	0.0666666666667	280.30487084388733	
10	241.71352410316467	pulse	0	t		0.16666667	0.0666666666667	90.0	192.0	0.0333333333333	0.1333333333333	0.0666666666667	281.1048409938812	
10	243.31446290016174	pulse	0	t		0.16666667	0.0666666666667	90.0	192.0	0.0333333333333	0.1333333333333	0.0666666666667	282.7057797908783	
10	244.91436505317688	pulse	0	t		0.16666667	0.0666666666667	90.0	192.0	0.0333333333333	0.1333333333333	0.0666666666667	284.30568194389343	
10	245.16124296188354	response	0	e		0.16666667	0.0666666666667	90.0	192.0	0.0333333333333	0.1333333333333	0.0666666666667	284.5525598526001	
10	246.5141921043396	pulse	0	t		0.16666667	0.0666666666667	90.0	192.0	0.0333333333333	0.1333333333333	0.0666666666667	285.90550899505615	
10	248.04106307029724	response	0	e		0.16666667	0.0666666666667	90.0	192.0	0.0333333333333	0.1333333333333	0.0666666666667	287.4323799610138	
10	248.1139199733734	pulse	0	t		0.16666667	0.0666666666667	90.0	192.0	0.0333333333333	0.1333333333333	0.0666666666667	287.50523686408997	
10	249.71400094032288	pulse	0	t		0.16666667	0.0666666666667	90.0	192.0	0.0333333333333	0.1333333333333	0.0666666666667	289.10531783103943	
10	251.13492393493652	response	0	e		0.16666667	0.0666666666667	90.0	192.0	0.0333333333333	0.1333333333333	0.0666666666667	290.5262408256531	
10	251.3138039112091	pulse	0	t		0.16666667	0.0666666666667	90.0	192.0	0.0333333333333	0.1333333333333	0.0666666666667	290.70512080192566	
10	252.91382098197937	pulse	0	t		0.16666667	0.0666666666667	90.0	192.0	0.0333333333333	0.1333333333333	0.0666666666667	292.3051378726959	
10	253.81080794334412	response	0	e		0.16666667	0.0666666666667	90.0	192.0	0.0333333333333	0.1333333333333	0.0666666666667	293.20212483406067	
10	254.51377296447754	pulse	0	t		0.16666667	0.0666666666667	90.0	192.0	0.0333333333333	0.1333333333333	0.0666666666667	293.9050898551941	
10	256.11369609832764	pulse	0	t		0.16666667	0.0666666666667	90.0	192.0	0.0333333333333	0.1333333333333	0.0666666666667	295.5050129890442	
10	256.72356605529785	response	0	e		0.16666667	0.0666666666667	90.0	192.0	0.0333333333333	0.1333333333333	0.0666666666667	296.1148829460144	
10	257.7135338783264	pulse	0	t		0.16666667	0.0666666666667	90.0	192.0	0.0333333333333	0.1333333333333	0.0666666666667	297.10485076904297	
11	257.73204803466797	stim	0		0	-1.0	1.0	-1.0	216.0	0.0333333333333	0.1333333333333	0.0666666666667	297.1233649253845	16.008278846740723
11	259.3155589103699	pulse	0	t		-1.0	1.0	-1.0	216.0	0.0333333333333	0.1333333333333	0.0666666666667	298.7068758010864	
11	260.91534090042114	pulse	0	t		-1.0	1.0	-1.0	216.0	0.0333333333333	0.1333333333333	0.0666666666667	300.3066577911377	
11	262.5154490470886	pulse	0	t		-1.0	1.0	-1.0	216.0	0.0333333333333	0.1333333333333	0.0666666666667	301.9067659378052	
11	264.1154019832611	pulse	0	t		-1.0	1.0	-1.0	216.0	0.0333333333333	0.1333333333333	0.0666666666667	303.50671887397766	
11	265.65711188316345	response	0	e		-1.0	1.0	-1.0	216.0	0.0333333333333	0.1333333333333	0.0666666666667	305.04842877388	
11	265.7155430316925	pulse	0	t		-1.0	1.0	-1.0	216.0	0.0333333333333	0.1333333333333	0.0666666666667	305.10685992240906	
11	267.3153839111328	pulse	0	t		-1.0	1.0	-1.0	216.0	0.0333333333333	0.1333333333333	0.0666666666667	306.70670080184937	
11	268.9154489040375	pulse	0	t		-1.0	1.0	-1.0	216.0	0.0333333333333	0.1333333333333	0.0666666666667	308.306765794754	
11	269.1821229457855	response	0	e		-1.0	1.0	-1.0	216.0	0.0333333333333	0.1333333333333	0.0666666666667	308.5734398365021	
11	270.5153560638428	pulse	0	t		-1.0	1.0	-1.0	216.0	0.0333333333333	0.1333333333333	0.0666666666667	309.9066729545593	
11	272.1154410839081	pulse	0	t		-1.0	1.0	-1.0	216.0	0.0333333333333	0.1333333333333	0.0666666666667	311.50675797462463	
11	272.6737380027771	response	0	e		-1.0	1.0	-1.0	216.0	0.0333333333333	0.1333333333333	0.0666666666667	312.06505489349365	
11	273.7154641151428	pulse	0	t		-1.0	1.0	-1.0	216.0	0.0333333333333	0.1333333333333	0.0666666666667	313.1067810058594	
12	273.7403268814087	stim	0		0	0.16666667	0.0666666666667	0.0	232.0	0.0333333333333	0.1333333333333	0.0666666666667	313.13164377212524	23.99159002304077
12	275.0934419631958	response	0	e		0.16666667	0.0666666666667	0.0	232.0	0.0333333333333	0.1333333333333	0.0666666666667	314.48475885391235	
12	275.31439995765686	pulse	0	t		0.16666667	0.0666666666667	0.0	232.0	0.0333333333333	0.1333333333333	0.0666666666667	314.7057168483734	
12	276.91436100006104	pulse	0	t		0.16666667	0.0666666666667	0.0	232.0	0.0333333333333	0.1333333333333	0.0666666666667	316.3056778907776	
12	278.5143070220947	pulse	0	t		0.16666667	0.0666666666667	0.0	232.0	0.0333333333333	0.1333333333333	0.0666666666667	317.9056239128113	
12	278.9321620464325	response	0	e		0.16666667	0.0666666666667	0.0	232.0	0.0333333333333	0.1333333333333	0.0666666666667	318.32347893714905	
12	280.11419701576233	pulse	0	t		0.16666667	0.0666666666667	0.0	232.0	0.0333333333333	0.1333333333333	0.0666666666667	319.5055139064789	
12	281.71409606933594	pulse	0	t		0.16666667	0.0666666666667	0.0	232.0	0.0333333333333	0.1333333333333	0.0666666666667	321.1054129600525	
12	283.3140149116516	pulse	0	t		0.16666667	0.0666666666667	0.0	232.0	0.0333333333333	0.1333333333333	0.0666666666667	322.70533180236816	
12	284.34195494651794	response	0	e		0.16666667	0.0666666666667	0.0	232.0	0.0333333333333	0.1333333333333	0.0666666666667	323.7332718372345	
12	284.91384100914	pulse	0	t		0.16666667	0.0666666666667	0.0	232.0	0.0333333333333	0.1333333333333	0.0666666666667	324.30515789985657	
12	286.5138158798218	pulse	0	t		0.16666667	0.0666666666667	0.0	232.0	0.0333333333333	0.1333333333333	0.0666666666667	325.90513277053833	
12	288.1137149333954	pulse	0	t		0.16666667	0.0666666666667	0.0	232.0	0.0333333333333	0.1333333333333	0.0666666666667	327.50503182411194	
12	289.7135820388794	pulse	0	t		0.16666667	0.0666666666667	0.0	232.0	0.0333333333333	0.1333333333333	0.0666666666667	329.10489892959595	
12	291.31450605392456	pulse	0	t		0.16666667	0.0666666666667	0.0	232.0	0.0333333333333	0.1333333333333	0.0666666666667	330.7058229446411	
12	292.91437292099	pulse	0	t		0.16666667	0.0666666666667	0.0	232.0	0.0333333333333	0.1333333333333	0.0666666666667	332.30568981170654	
12	293.1823310852051	response	0	e		0.16666667	0.0666666666667	0.0	232.0	0.0333333333333	0.1333333333333	0.0666666666667	332.57364797592163	
12	294.51430201530457	pulse	0	t		0.16666667	0.0666666666667	0.0	232.0	0.0333333333333	0.1333333333333	0.0666666666667	333.9056189060211	
12	296.1142840385437	pulse	0	t		0.16666667	0.0666666666667	0.0	232.0	0.0333333333333	0.1333333333333	0.0666666666667	335.50560092926025	
12	297.7141740322113	pulse	0	t		0.16666667	0.0666666666667	0.0	232.0	0.0333333333333	0.1333333333333	0.0666666666667	337.10549092292786	
13	297.73191690444946	stim	0		0	0.16666667	0.0666666666667	270.0	256.0	0.0333333333333	0.1333333333333	0.0666666666667	337.123233795166	23.999778032302856
13	298.78109097480774	response	0	e		0.16666667	0.0666666666667	270.0	256.0	0.0333333333333	0.1333333333333	0.0666666666667	338.1724078655243	
13	299.31394505500793	pulse	0	t		0.16666667	0.0666666666667	270.0	256.0	0.0333333333333	0.1333333333333	0.0666666666667	338.7052619457245	
13	300.913938999176	pulse	0	t		0.16666667	0.0666666666667	270.0	256.0	0.0333333333333	0.1333333333333	0.0666666666667	340.3052558898926	
13	301.93783807754517	response	0	e		0.16666667	0.0666666666667	270.0	256.0	0.0333333333333	0.1333333333333	0.0666666666667	341.3291549682617	
13	302.5137560367584	pulse	0	t		0.16666667	0.0666666666667	270.0	256.0	0.0333333333333	0.1333333333333	0.0666666666667	341.905072927475	
13	304.1136829853058	pulse	0	t		0.16666667	0.0666666666667	270.0	256.0	0.0333333333333	0.1333333333333	0.0666666666667	343.50499987602234	
13	304.31549406051636	response	0	e		0.16666667	0.0666666666667	270.0	256.0	0.0333333333333	0.1333333333333	0.0666666666667	343.7068109512329	
13	305.713604927063	pulse	0	t		0.16666667	0.0666666666667	270.0	256.0	0.0333333333333	0.1333333333333	0.0666666666667	345.10492181777954	
13	307.3145089149475	pulse	0	t		0.16666667	0.0666666666667	270.0	256.0	0.0333333333333	0.1333333333333	0.0666666666667	346.70582580566406	
13	308.9144380092621	pulse	0	t		0.16666667	0.0666666666667	270.0	256.0	0.0333333333333	0.1333333333333	0.0666666666667	348.30575489997864	
13	310.51431798934937	pulse	0	t		0.16666667	0.0666666666667	270.0	256.0	0.0333333333333	0.1333333333333	0.0666666666667	349.9056348800659	
13	312.11427187919617	pulse	0	t		0.16666667	0.0666666666667	270.0	256.0	0.0333333333333	0.1333333333333	0.0666666666667	351.5055887699127	
13	313.7141160964966	pulse	0	t		0.16666667	0.0666666666667	270.0	256.0	0.0333333333333	0.1333333333333	0.0666666666667	353.10543298721313	
13	315.3140308856964	pulse	0	t		0.16666667	0.0666666666667	270.0	256.0	0.0333333333333	0.1333333333333	0.0666666666667	354.70534777641296	
13	316.91394305229187	pulse	0	t		0.16666667	0.0666666666667	270.0	256.0	0.0333333333333	0.1333333333333	0.0666666666667	356.3052599430084	
13	317.5458300113678	response	0	e		0.16666667	0.0666666666667	270.0	256.0	0.0333333333333	0.1333333333333	0.0666666666667	356.93714690208435	
13	318.11988496780396	response	0	e		0.16666667	0.0666666666667	270.0	256.0	0.0333333333333	0.1333333333333	0.0666666666667	357.5112018585205	
13	318.51376700401306	pulse	0	t		0.16666667	0.0666666666667	270.0	256.0	0.0333333333333	0.1333333333333	0.0666666666667	357.9050838947296	
13	319.82479596138	response	0	e		0.16666667	0.0666666666667	270.0	256.0	0.0333333333333	0.1333333333333	0.0666666666667	359.21611285209656	
13	320.11367201805115	pulse	0	t		0.16666667	0.0666666666667	270.0	256.0	0.0333333333333	0.1333333333333	0.0666666666667	359.5049889087677	
13	321.7136809825897	pulse	0	t		0.16666667	0.0666666666667	270.0	256.0	0.0333333333333	0.1333333333333	0.0666666666667	361.1049978733063	
14	321.7316949367523	stim	0		0								361.1230118274689	24.39120101928711
14	323.315288066864	pulse	0	t									362.70660495758057	
14	324.9151918888092	pulse	0	t									364.30650877952576	
14	325.33185291290283	response	0	e									364.7231698036194	
14	326.5152370929718	pulse	0	t									365.90655398368835	
14	328.11530900001526	pulse	0	t									367.5066258907318	
14	328.2984540462494	response	0	e									367.68977093696594	
14	329.7151520252228	pulse	0	t									369.10646891593933	
14	331.3151500225067	pulse	0	t									370.70646691322327	
14	332.9151449203491	pulse	0	t									372.3064618110657	
14	334.5151948928833	pulse	0	t									373.90651178359985	
14	336.115051984787	pulse	0	t									375.50636887550354	
14	337.7151229381561	pulse	0	t									377.1064398288727	
14	338.79848289489746	response	0	e									378.189799785614	
14	339.31504011154175	pulse	0	t									378.7063570022583	
14	340.91523599624634	pulse	0	t									380.3065528869629	
14	342.5150020122528	pulse	0	t									381.90631890296936	
14	343.4401168823242	response	0	e									382.83143377304077	
14	344.1151430606842	pulse	0	t									383.50645995140076	
14	345.71507692337036	pulse	0	t									385.1063938140869	
