trial_nr	onset	event_type	phase	response	nr_frames	bar_width	bar_refresh_time	bar_direction	start_time	bar_blank_duration	bar_blank_interval	bg_stim_refresh_time	onset_abs	duration
0	0.16658592224121094	stim	0		0								65.29563879966736	1.0751121044158936
0	1.23368501663208	response	0	space									66.36273789405823	
1	1.2416980266571045	stim	0		0								66.37075090408325	37.57520079612732
1	38.78744196891785	pulse	0	t									103.916494846344	
1	38.816898822784424	stim	1		0								103.94595170021057	0.0009610652923583984
1	38.81785988807678	stim	0		0								103.94691276550293	23.999685049057007
1	40.38103890419006	pulse	0	t									105.51009178161621	
1	41.98135781288147	pulse	0	t									107.11041069030762	
1	43.581465005874634	pulse	0	t									108.71051788330078	
1	45.18176984786987	pulse	0	t									110.31082272529602	
1	45.891960859298706	response	0	b									111.02101373672485	
1	46.7819390296936	pulse	0	t									111.91099190711975	
1	48.38225603103638	pulse	0	t									113.51130890846252	
1	49.98244881629944	pulse	0	t									115.11150169372559	
1	51.126086950302124	response	0	b									116.25513982772827	
1	51.58263087272644	pulse	0	t									116.71168375015259	
1	53.18289399147034	pulse	0	t									118.31194686889648	
1	53.63302803039551	response	0	b									118.76208090782166	
1	54.77678084373474	pulse	0	t									119.90583372116089	
1	56.376983880996704	pulse	0	t									121.50603675842285	
1	57.53541588783264	response	0	b									122.66446876525879	
1	57.9771568775177	pulse	0	t									123.10620975494385	
1	59.57742881774902	pulse	0	t									124.70648169517517	
1	60.659132957458496	response	0	b									125.78818583488464	
1	61.17782402038574	pulse	0	t									126.30687689781189	
1	62.77792286872864	pulse	0	t									127.90697574615479	
2	62.81754493713379	stim	0		0	0.16666667	0.0666666666667	270.0	24.0	0.0333333333333	0.1333333333333	0.0666666666667	127.94659781455994	23.995305061340332
2	63.59097599983215	response	0	b		0.16666667	0.0666666666667	270.0	24.0	0.0333333333333	0.1333333333333	0.0666666666667	128.7200288772583	
2	64.37687182426453	pulse	0	t		0.16666667	0.0666666666667	270.0	24.0	0.0333333333333	0.1333333333333	0.0666666666667	129.50592470169067	
2	65.57699084281921	response	0	b		0.16666667	0.0666666666667	270.0	24.0	0.0333333333333	0.1333333333333	0.0666666666667	130.70604372024536	
2	65.9769639968872	pulse	0	t		0.16666667	0.0666666666667	270.0	24.0	0.0333333333333	0.1333333333333	0.0666666666667	131.10601687431335	
2	67.57700395584106	pulse	0	t		0.16666667	0.0666666666667	270.0	24.0	0.0333333333333	0.1333333333333	0.0666666666667	132.7060568332672	
2	69.1770408153534	pulse	0	t		0.16666667	0.0666666666667	270.0	24.0	0.0333333333333	0.1333333333333	0.0666666666667	134.30609369277954	
2	69.6399998664856	response	0	b		0.16666667	0.0666666666667	270.0	24.0	0.0333333333333	0.1333333333333	0.0666666666667	134.76905274391174	
2	70.77701187133789	pulse	0	t		0.16666667	0.0666666666667	270.0	24.0	0.0333333333333	0.1333333333333	0.0666666666667	135.90606474876404	
2	72.37707090377808	pulse	0	t		0.16666667	0.0666666666667	270.0	24.0	0.0333333333333	0.1333333333333	0.0666666666667	137.50612378120422	
2	72.8490149974823	response	0	b		0.16666667	0.0666666666667	270.0	24.0	0.0333333333333	0.1333333333333	0.0666666666667	137.97806787490845	
2	73.97705793380737	pulse	0	t		0.16666667	0.0666666666667	270.0	24.0	0.0333333333333	0.1333333333333	0.0666666666667	139.10611081123352	
2	75.57713198661804	pulse	0	t		0.16666667	0.0666666666667	270.0	24.0	0.0333333333333	0.1333333333333	0.0666666666667	140.7061848640442	
2	77.17711782455444	pulse	0	t		0.16666667	0.0666666666667	270.0	24.0	0.0333333333333	0.1333333333333	0.0666666666667	142.3061707019806	
2	78.7101559638977	response	0	b		0.16666667	0.0666666666667	270.0	24.0	0.0333333333333	0.1333333333333	0.0666666666667	143.83920884132385	
2	78.77695989608765	pulse	0	t		0.16666667	0.0666666666667	270.0	24.0	0.0333333333333	0.1333333333333	0.0666666666667	143.9060127735138	
2	80.3771288394928	pulse	0	t		0.16666667	0.0666666666667	270.0	24.0	0.0333333333333	0.1333333333333	0.0666666666667	145.50618171691895	
2	81.97726392745972	pulse	0	t		0.16666667	0.0666666666667	270.0	24.0	0.0333333333333	0.1333333333333	0.0666666666667	147.10631680488586	
2	83.44219303131104	response	0	b		0.16666667	0.0666666666667	270.0	24.0	0.0333333333333	0.1333333333333	0.0666666666667	148.57124590873718	
2	83.57705903053284	pulse	0	t		0.16666667	0.0666666666667	270.0	24.0	0.0333333333333	0.1333333333333	0.0666666666667	148.70611190795898	
2	85.17725086212158	pulse	0	t		0.16666667	0.0666666666667	270.0	24.0	0.0333333333333	0.1333333333333	0.0666666666667	150.30630373954773	
2	85.79919695854187	response	0	b		0.16666667	0.0666666666667	270.0	24.0	0.0333333333333	0.1333333333333	0.0666666666667	150.92824983596802	
2	86.77632999420166	pulse	0	t		0.16666667	0.0666666666667	270.0	24.0	0.0333333333333	0.1333333333333	0.0666666666667	151.9053828716278	
3	86.81284999847412	stim	0		0	0.16666667	0.0666666666667	0.0	48.0	0.0333333333333	0.1333333333333	0.0666666666667	151.94190287590027	24.003532886505127
3	88.37726187705994	pulse	0	t		0.16666667	0.0666666666667	0.0	48.0	0.0333333333333	0.1333333333333	0.0666666666667	153.50631475448608	
3	88.91823482513428	response	0	b		0.16666667	0.0666666666667	0.0	48.0	0.0333333333333	0.1333333333333	0.0666666666667	154.04728770256042	
3	89.97630500793457	pulse	0	t		0.16666667	0.0666666666667	0.0	48.0	0.0333333333333	0.1333333333333	0.0666666666667	155.10535788536072	
3	91.57628297805786	pulse	0	t		0.16666667	0.0666666666667	0.0	48.0	0.0333333333333	0.1333333333333	0.0666666666667	156.705335855484	
3	92.03323984146118	response	0	b		0.16666667	0.0666666666667	0.0	48.0	0.0333333333333	0.1333333333333	0.0666666666667	157.16229271888733	
3	93.17624998092651	pulse	0	t		0.16666667	0.0666666666667	0.0	48.0	0.0333333333333	0.1333333333333	0.0666666666667	158.30530285835266	
3	94.77633500099182	pulse	0	t		0.16666667	0.0666666666667	0.0	48.0	0.0333333333333	0.1333333333333	0.0666666666667	159.90538787841797	
3	96.3763678073883	pulse	0	t		0.16666667	0.0666666666667	0.0	48.0	0.0333333333333	0.1333333333333	0.0666666666667	161.50542068481445	
3	97.97635984420776	pulse	0	t		0.16666667	0.0666666666667	0.0	48.0	0.0333333333333	0.1333333333333	0.0666666666667	163.1054127216339	
3	99.57639002799988	pulse	0	t		0.16666667	0.0666666666667	0.0	48.0	0.0333333333333	0.1333333333333	0.0666666666667	164.70544290542603	
3	101.005774974823	response	0	b		0.16666667	0.0666666666667	0.0	48.0	0.0333333333333	0.1333333333333	0.0666666666667	166.13482785224915	
3	101.17625093460083	pulse	0	t		0.16666667	0.0666666666667	0.0	48.0	0.0333333333333	0.1333333333333	0.0666666666667	166.30530381202698	
3	102.77637481689453	pulse	0	t		0.16666667	0.0666666666667	0.0	48.0	0.0333333333333	0.1333333333333	0.0666666666667	167.90542769432068	
3	104.37645983695984	pulse	0	t		0.16666667	0.0666666666667	0.0	48.0	0.0333333333333	0.1333333333333	0.0666666666667	169.505512714386	
3	105.9764609336853	pulse	0	t		0.16666667	0.0666666666667	0.0	48.0	0.0333333333333	0.1333333333333	0.0666666666667	171.10551381111145	
3	107.57659387588501	pulse	0	t		0.16666667	0.0666666666667	0.0	48.0	0.0333333333333	0.1333333333333	0.0666666666667	172.70564675331116	
3	109.17661190032959	pulse	0	t		0.16666667	0.0666666666667	0.0	48.0	0.0333333333333	0.1333333333333	0.0666666666667	174.30566477775574	
3	110.77658295631409	pulse	0	t		0.16666667	0.0666666666667	0.0	48.0	0.0333333333333	0.1333333333333	0.0666666666667	175.90563583374023	
4	110.81638288497925	stim	0		0	-1.0	1.0	-1.0	72.0	0.0333333333333	0.1333333333333	0.0666666666667	175.9454357624054	15.994024991989136
4	111.13333582878113	response	0	b		-1.0	1.0	-1.0	72.0	0.0333333333333	0.1333333333333	0.0666666666667	176.26238870620728	
4	112.37703895568848	pulse	0	t		-1.0	1.0	-1.0	72.0	0.0333333333333	0.1333333333333	0.0666666666667	177.50609183311462	
4	113.97729992866516	pulse	0	t		-1.0	1.0	-1.0	72.0	0.0333333333333	0.1333333333333	0.0666666666667	179.1063528060913	
4	115.41724681854248	response	0	b		-1.0	1.0	-1.0	72.0	0.0333333333333	0.1333333333333	0.0666666666667	180.54629969596863	
4	115.57729196548462	pulse	0	t		-1.0	1.0	-1.0	72.0	0.0333333333333	0.1333333333333	0.0666666666667	180.70634484291077	
4	117.17759680747986	pulse	0	t		-1.0	1.0	-1.0	72.0	0.0333333333333	0.1333333333333	0.0666666666667	182.306649684906	
4	118.77795791625977	pulse	0	t		-1.0	1.0	-1.0	72.0	0.0333333333333	0.1333333333333	0.0666666666667	183.9070107936859	
4	120.1614019870758	response	0	b		-1.0	1.0	-1.0	72.0	0.0333333333333	0.1333333333333	0.0666666666667	185.29045486450195	
4	120.37826585769653	pulse	0	t		-1.0	1.0	-1.0	72.0	0.0333333333333	0.1333333333333	0.0666666666667	185.50731873512268	
4	121.97845196723938	pulse	0	t		-1.0	1.0	-1.0	72.0	0.0333333333333	0.1333333333333	0.0666666666667	187.10750484466553	
4	123.57669687271118	pulse	0	t		-1.0	1.0	-1.0	72.0	0.0333333333333	0.1333333333333	0.0666666666667	188.70574975013733	
4	125.16228890419006	response	0	b		-1.0	1.0	-1.0	72.0	0.0333333333333	0.1333333333333	0.0666666666667	190.2913417816162	
4	125.17691087722778	pulse	0	t		-1.0	1.0	-1.0	72.0	0.0333333333333	0.1333333333333	0.0666666666667	190.30596375465393	
4	126.7772889137268	pulse	0	t		-1.0	1.0	-1.0	72.0	0.0333333333333	0.1333333333333	0.0666666666667	191.90634179115295	
5	126.81040787696838	stim	0		0	0.16666667	0.0666666666667	90.0	88.0	0.0333333333333	0.1333333333333	0.0666666666667	191.93946075439453	23.99525213241577
5	127.19373083114624	response	0	b		0.16666667	0.0666666666667	90.0	88.0	0.0333333333333	0.1333333333333	0.0666666666667	192.3227837085724	
5	128.37676286697388	pulse	0	t		0.16666667	0.0666666666667	90.0	88.0	0.0333333333333	0.1333333333333	0.0666666666667	193.50581574440002	
5	129.9767119884491	pulse	0	t		0.16666667	0.0666666666667	90.0	88.0	0.0333333333333	0.1333333333333	0.0666666666667	195.10576486587524	
5	131.57676196098328	pulse	0	t		0.16666667	0.0666666666667	90.0	88.0	0.0333333333333	0.1333333333333	0.0666666666667	196.70581483840942	
5	132.1307168006897	response	0	b		0.16666667	0.0666666666667	90.0	88.0	0.0333333333333	0.1333333333333	0.0666666666667	197.25976967811584	
5	133.17677688598633	pulse	0	t		0.16666667	0.0666666666667	90.0	88.0	0.0333333333333	0.1333333333333	0.0666666666667	198.30582976341248	
5	134.77679800987244	pulse	0	t		0.16666667	0.0666666666667	90.0	88.0	0.0333333333333	0.1333333333333	0.0666666666667	199.90585088729858	
5	135.63675999641418	response	0	b		0.16666667	0.0666666666667	90.0	88.0	0.0333333333333	0.1333333333333	0.0666666666667	200.76581287384033	
5	136.37680387496948	pulse	0	t		0.16666667	0.0666666666667	90.0	88.0	0.0333333333333	0.1333333333333	0.0666666666667	201.50585675239563	
5	137.97688794136047	pulse	0	t		0.16666667	0.0666666666667	90.0	88.0	0.0333333333333	0.1333333333333	0.0666666666667	203.10594081878662	
5	139.57681584358215	pulse	0	t		0.16666667	0.0666666666667	90.0	88.0	0.0333333333333	0.1333333333333	0.0666666666667	204.7058687210083	
5	141.17692279815674	pulse	0	t		0.16666667	0.0666666666667	90.0	88.0	0.0333333333333	0.1333333333333	0.0666666666667	206.30597567558289	
5	142.77687692642212	pulse	0	t		0.16666667	0.0666666666667	90.0	88.0	0.0333333333333	0.1333333333333	0.0666666666667	207.90592980384827	
5	144.376935005188	pulse	0	t		0.16666667	0.0666666666667	90.0	88.0	0.0333333333333	0.1333333333333	0.0666666666667	209.50598788261414	
5	145.97693586349487	pulse	0	t		0.16666667	0.0666666666667	90.0	88.0	0.0333333333333	0.1333333333333	0.0666666666667	211.10598874092102	
5	147.57695484161377	pulse	0	t		0.16666667	0.0666666666667	90.0	88.0	0.0333333333333	0.1333333333333	0.0666666666667	212.70600771903992	
5	148.04188895225525	response	0	b		0.16666667	0.0666666666667	90.0	88.0	0.0333333333333	0.1333333333333	0.0666666666667	213.1709418296814	
5	149.1769618988037	pulse	0	t		0.16666667	0.0666666666667	90.0	88.0	0.0333333333333	0.1333333333333	0.0666666666667	214.30601477622986	
5	150.77699279785156	pulse	0	t		0.16666667	0.0666666666667	90.0	88.0	0.0333333333333	0.1333333333333	0.0666666666667	215.9060456752777	
6	150.80566000938416	stim	0		0	0.16666667	0.0666666666667	180.0	112.0	0.0333333333333	0.1333333333333	0.0666666666667	215.9347128868103	24.01193881034851
6	151.48615789413452	response	0	b		0.16666667	0.0666666666667	180.0	112.0	0.0333333333333	0.1333333333333	0.0666666666667	216.61521077156067	
6	152.3769679069519	pulse	0	t		0.16666667	0.0666666666667	180.0	112.0	0.0333333333333	0.1333333333333	0.0666666666667	217.50602078437805	
6	153.81509280204773	response	0	b		0.16666667	0.0666666666667	180.0	112.0	0.0333333333333	0.1333333333333	0.0666666666667	218.94414567947388	
6	153.97689986228943	pulse	0	t		0.16666667	0.0666666666667	180.0	112.0	0.0333333333333	0.1333333333333	0.0666666666667	219.10595273971558	
6	155.577054977417	pulse	0	t		0.16666667	0.0666666666667	180.0	112.0	0.0333333333333	0.1333333333333	0.0666666666667	220.70610785484314	
6	156.82918500900269	response	0	b		0.16666667	0.0666666666667	180.0	112.0	0.0333333333333	0.1333333333333	0.0666666666667	221.95823788642883	
6	157.17694401741028	pulse	0	t		0.16666667	0.0666666666667	180.0	112.0	0.0333333333333	0.1333333333333	0.0666666666667	222.30599689483643	
6	158.77717089653015	pulse	0	t		0.16666667	0.0666666666667	180.0	112.0	0.0333333333333	0.1333333333333	0.0666666666667	223.9062237739563	
6	160.37711882591248	pulse	0	t		0.16666667	0.0666666666667	180.0	112.0	0.0333333333333	0.1333333333333	0.0666666666667	225.50617170333862	
6	161.97724795341492	pulse	0	t		0.16666667	0.0666666666667	180.0	112.0	0.0333333333333	0.1333333333333	0.0666666666667	227.10630083084106	
6	163.5772819519043	pulse	0	t		0.16666667	0.0666666666667	180.0	112.0	0.0333333333333	0.1333333333333	0.0666666666667	228.70633482933044	
6	164.36325192451477	response	0	b		0.16666667	0.0666666666667	180.0	112.0	0.0333333333333	0.1333333333333	0.0666666666667	229.49230480194092	
6	165.17725801467896	pulse	0	t		0.16666667	0.0666666666667	180.0	112.0	0.0333333333333	0.1333333333333	0.0666666666667	230.3063108921051	
6	166.47529196739197	response	0	b		0.16666667	0.0666666666667	180.0	112.0	0.0333333333333	0.1333333333333	0.0666666666667	231.60434484481812	
6	166.77720880508423	pulse	0	t		0.16666667	0.0666666666667	180.0	112.0	0.0333333333333	0.1333333333333	0.0666666666667	231.90626168251038	
6	168.37729501724243	pulse	0	t		0.16666667	0.0666666666667	180.0	112.0	0.0333333333333	0.1333333333333	0.0666666666667	233.50634789466858	
6	169.97727990150452	pulse	0	t		0.16666667	0.0666666666667	180.0	112.0	0.0333333333333	0.1333333333333	0.0666666666667	235.10633277893066	
6	171.5773708820343	pulse	0	t		0.16666667	0.0666666666667	180.0	112.0	0.0333333333333	0.1333333333333	0.0666666666667	236.70642375946045	
6	173.17737293243408	pulse	0	t		0.16666667	0.0666666666667	180.0	112.0	0.0333333333333	0.1333333333333	0.0666666666667	238.30642580986023	
6	173.2651538848877	response	0	b		0.16666667	0.0666666666667	180.0	112.0	0.0333333333333	0.1333333333333	0.0666666666667	238.39420676231384	
6	174.77737593650818	pulse	0	t		0.16666667	0.0666666666667	180.0	112.0	0.0333333333333	0.1333333333333	0.0666666666667	239.90642881393433	
7	174.81759881973267	stim	0		0	-1.0	1.0	-1.0	136.0	0.0333333333333	0.1333333333333	0.0666666666667	239.9466516971588	15.994049072265625
7	175.54478001594543	response	0	b		-1.0	1.0	-1.0	136.0	0.0333333333333	0.1333333333333	0.0666666666667	240.67383289337158	
7	176.37820291519165	pulse	0	t		-1.0	1.0	-1.0	136.0	0.0333333333333	0.1333333333333	0.0666666666667	241.5072557926178	
7	177.9783399105072	pulse	0	t		-1.0	1.0	-1.0	136.0	0.0333333333333	0.1333333333333	0.0666666666667	243.10739278793335	
7	179.17681193351746	response	0	b		-1.0	1.0	-1.0	136.0	0.0333333333333	0.1333333333333	0.0666666666667	244.3058648109436	
7	179.5787808895111	pulse	0	t		-1.0	1.0	-1.0	136.0	0.0333333333333	0.1333333333333	0.0666666666667	244.70783376693726	
7	181.17906785011292	pulse	0	t		-1.0	1.0	-1.0	136.0	0.0333333333333	0.1333333333333	0.0666666666667	246.30812072753906	
7	182.77937388420105	pulse	0	t		-1.0	1.0	-1.0	136.0	0.0333333333333	0.1333333333333	0.0666666666667	247.9084267616272	
7	182.79393696784973	response	0	b		-1.0	1.0	-1.0	136.0	0.0333333333333	0.1333333333333	0.0666666666667	247.92298984527588	
7	184.3773808479309	pulse	0	t		-1.0	1.0	-1.0	136.0	0.0333333333333	0.1333333333333	0.0666666666667	249.50643372535706	
7	185.25254583358765	response	0	b		-1.0	1.0	-1.0	136.0	0.0333333333333	0.1333333333333	0.0666666666667	250.3815987110138	
7	185.97775888442993	pulse	0	t		-1.0	1.0	-1.0	136.0	0.0333333333333	0.1333333333333	0.0666666666667	251.10681176185608	
7	187.5780107975006	pulse	0	t		-1.0	1.0	-1.0	136.0	0.0333333333333	0.1333333333333	0.0666666666667	252.70706367492676	
7	187.62800192832947	response	0	b		-1.0	1.0	-1.0	136.0	0.0333333333333	0.1333333333333	0.0666666666667	252.75705480575562	
7	189.17828798294067	pulse	0	t		-1.0	1.0	-1.0	136.0	0.0333333333333	0.1333333333333	0.0666666666667	254.30734086036682	
7	190.7784059047699	pulse	0	t		-1.0	1.0	-1.0	136.0	0.0333333333333	0.1333333333333	0.0666666666667	255.90745878219604	
8	190.8116478919983	stim	0		0	-1.0	1.0	-1.0	152.0	0.0333333333333	0.1333333333333	0.0666666666667	255.94070076942444	16.002408981323242
8	191.92227482795715	response	0	b		-1.0	1.0	-1.0	152.0	0.0333333333333	0.1333333333333	0.0666666666667	257.0513277053833	
8	192.37871193885803	pulse	0	t		-1.0	1.0	-1.0	152.0	0.0333333333333	0.1333333333333	0.0666666666667	257.5077648162842	
8	193.9789469242096	pulse	0	t		-1.0	1.0	-1.0	152.0	0.0333333333333	0.1333333333333	0.0666666666667	259.10799980163574	
8	194.29566502571106	response	0	b		-1.0	1.0	-1.0	152.0	0.0333333333333	0.1333333333333	0.0666666666667	259.4247179031372	
8	195.57922887802124	pulse	0	t		-1.0	1.0	-1.0	152.0	0.0333333333333	0.1333333333333	0.0666666666667	260.7082817554474	
8	196.52283382415771	response	0	b		-1.0	1.0	-1.0	152.0	0.0333333333333	0.1333333333333	0.0666666666667	261.65188670158386	
8	197.17950797080994	pulse	0	t		-1.0	1.0	-1.0	152.0	0.0333333333333	0.1333333333333	0.0666666666667	262.3085608482361	
8	198.49000597000122	response	0	b		-1.0	1.0	-1.0	152.0	0.0333333333333	0.1333333333333	0.0666666666667	263.61905884742737	
8	198.77964401245117	pulse	0	t		-1.0	1.0	-1.0	152.0	0.0333333333333	0.1333333333333	0.0666666666667	263.9086968898773	
8	200.37994003295898	pulse	0	t		-1.0	1.0	-1.0	152.0	0.0333333333333	0.1333333333333	0.0666666666667	265.50899291038513	
8	201.98030185699463	pulse	0	t		-1.0	1.0	-1.0	152.0	0.0333333333333	0.1333333333333	0.0666666666667	267.1093547344208	
8	202.95541501045227	response	0	b		-1.0	1.0	-1.0	152.0	0.0333333333333	0.1333333333333	0.0666666666667	268.0844678878784	
8	203.5804979801178	pulse	0	t		-1.0	1.0	-1.0	152.0	0.0333333333333	0.1333333333333	0.0666666666667	268.70955085754395	
8	205.18065285682678	pulse	0	t		-1.0	1.0	-1.0	152.0	0.0333333333333	0.1333333333333	0.0666666666667	270.30970573425293	
8	205.86409282684326	response	0	b		-1.0	1.0	-1.0	152.0	0.0333333333333	0.1333333333333	0.0666666666667	270.9931457042694	
8	206.78080892562866	pulse	0	t		-1.0	1.0	-1.0	152.0	0.0333333333333	0.1333333333333	0.0666666666667	271.9098618030548	
9	206.81405687332153	stim	0		0	0.16666667	0.0666666666667	180.0	168.0	0.0333333333333	0.1333333333333	0.0666666666667	271.9431097507477	24.00358295440674
9	208.37666296958923	pulse	0	t		0.16666667	0.0666666666667	180.0	168.0	0.0333333333333	0.1333333333333	0.0666666666667	273.5057158470154	
9	208.4665069580078	response	0	b		0.16666667	0.0666666666667	180.0	168.0	0.0333333333333	0.1333333333333	0.0666666666667	273.59555983543396	
9	209.97681403160095	pulse	0	t		0.16666667	0.0666666666667	180.0	168.0	0.0333333333333	0.1333333333333	0.0666666666667	275.1058669090271	
9	211.57682490348816	pulse	0	t		0.16666667	0.0666666666667	180.0	168.0	0.0333333333333	0.1333333333333	0.0666666666667	276.7058777809143	
9	212.84079384803772	response	0	b		0.16666667	0.0666666666667	180.0	168.0	0.0333333333333	0.1333333333333	0.0666666666667	277.96984672546387	
9	213.17678594589233	pulse	0	t		0.16666667	0.0666666666667	180.0	168.0	0.0333333333333	0.1333333333333	0.0666666666667	278.3058388233185	
9	214.7768518924713	pulse	0	t		0.16666667	0.0666666666667	180.0	168.0	0.0333333333333	0.1333333333333	0.0666666666667	279.90590476989746	
9	216.0088438987732	response	0	b		0.16666667	0.0666666666667	180.0	168.0	0.0333333333333	0.1333333333333	0.0666666666667	281.13789677619934	
9	216.37681579589844	pulse	0	t		0.16666667	0.0666666666667	180.0	168.0	0.0333333333333	0.1333333333333	0.0666666666667	281.5058686733246	
9	217.97683882713318	pulse	0	t		0.16666667	0.0666666666667	180.0	168.0	0.0333333333333	0.1333333333333	0.0666666666667	283.1058917045593	
9	219.2339038848877	response	0	b		0.16666667	0.0666666666667	180.0	168.0	0.0333333333333	0.1333333333333	0.0666666666667	284.36295676231384	
9	219.5768859386444	pulse	0	t		0.16666667	0.0666666666667	180.0	168.0	0.0333333333333	0.1333333333333	0.0666666666667	284.70593881607056	
9	221.17697095870972	pulse	0	t		0.16666667	0.0666666666667	180.0	168.0	0.0333333333333	0.1333333333333	0.0666666666667	286.30602383613586	
9	222.77699184417725	pulse	0	t		0.16666667	0.0666666666667	180.0	168.0	0.0333333333333	0.1333333333333	0.0666666666667	287.9060447216034	
9	224.37685990333557	pulse	0	t		0.16666667	0.0666666666667	180.0	168.0	0.0333333333333	0.1333333333333	0.0666666666667	289.5059127807617	
9	224.8970057964325	response	0	b		0.16666667	0.0666666666667	180.0	168.0	0.0333333333333	0.1333333333333	0.0666666666667	290.02605867385864	
9	225.97696590423584	pulse	0	t		0.16666667	0.0666666666667	180.0	168.0	0.0333333333333	0.1333333333333	0.0666666666667	291.106018781662	
9	227.4780249595642	response	0	b		0.16666667	0.0666666666667	180.0	168.0	0.0333333333333	0.1333333333333	0.0666666666667	292.60707783699036	
9	227.57679390907288	pulse	0	t		0.16666667	0.0666666666667	180.0	168.0	0.0333333333333	0.1333333333333	0.0666666666667	292.705846786499	
9	229.17704391479492	pulse	0	t		0.16666667	0.0666666666667	180.0	168.0	0.0333333333333	0.1333333333333	0.0666666666667	294.30609679222107	
9	230.77708387374878	pulse	0	t		0.16666667	0.0666666666667	180.0	168.0	0.0333333333333	0.1333333333333	0.0666666666667	295.9061367511749	
10	230.81763982772827	stim	0		0	0.16666667	0.0666666666667	90.0	192.0	0.0333333333333	0.1333333333333	0.0666666666667	295.9466927051544	23.98681616783142
10	232.115051984787	response	0	b		0.16666667	0.0666666666667	90.0	192.0	0.0333333333333	0.1333333333333	0.0666666666667	297.24410486221313	
10	232.37698602676392	pulse	0	t		0.16666667	0.0666666666667	90.0	192.0	0.0333333333333	0.1333333333333	0.0666666666667	297.50603890419006	
10	233.97704195976257	pulse	0	t		0.16666667	0.0666666666667	90.0	192.0	0.0333333333333	0.1333333333333	0.0666666666667	299.1060948371887	
10	234.6640648841858	response	0	b		0.16666667	0.0666666666667	90.0	192.0	0.0333333333333	0.1333333333333	0.0666666666667	299.79311776161194	
10	235.57708191871643	pulse	0	t		0.16666667	0.0666666666667	90.0	192.0	0.0333333333333	0.1333333333333	0.0666666666667	300.7061347961426	
10	237.17719101905823	pulse	0	t		0.16666667	0.0666666666667	90.0	192.0	0.0333333333333	0.1333333333333	0.0666666666667	302.3062438964844	
10	237.82913994789124	response	0	b		0.16666667	0.0666666666667	90.0	192.0	0.0333333333333	0.1333333333333	0.0666666666667	302.9581928253174	
10	238.7771348953247	pulse	0	t		0.16666667	0.0666666666667	90.0	192.0	0.0333333333333	0.1333333333333	0.0666666666667	303.90618777275085	
10	240.37717294692993	pulse	0	t		0.16666667	0.0666666666667	90.0	192.0	0.0333333333333	0.1333333333333	0.0666666666667	305.5062258243561	
10	241.31610679626465	response	0	b		0.16666667	0.0666666666667	90.0	192.0	0.0333333333333	0.1333333333333	0.0666666666667	306.4451596736908	
10	241.97710990905762	pulse	0	t		0.16666667	0.0666666666667	90.0	192.0	0.0333333333333	0.1333333333333	0.0666666666667	307.10616278648376	
10	243.57720184326172	pulse	0	t		0.16666667	0.0666666666667	90.0	192.0	0.0333333333333	0.1333333333333	0.0666666666667	308.70625472068787	
10	245.17709398269653	pulse	0	t		0.16666667	0.0666666666667	90.0	192.0	0.0333333333333	0.1333333333333	0.0666666666667	310.3061468601227	
10	246.77715802192688	pulse	0	t		0.16666667	0.0666666666667	90.0	192.0	0.0333333333333	0.1333333333333	0.0666666666667	311.906210899353	
10	248.3773159980774	pulse	0	t		0.16666667	0.0666666666667	90.0	192.0	0.0333333333333	0.1333333333333	0.0666666666667	313.50636887550354	
10	249.97730088233948	pulse	0	t		0.16666667	0.0666666666667	90.0	192.0	0.0333333333333	0.1333333333333	0.0666666666667	315.1063537597656	
10	251.5773549079895	pulse	0	t		0.16666667	0.0666666666667	90.0	192.0	0.0333333333333	0.1333333333333	0.0666666666667	316.70640778541565	
10	252.85435485839844	response	0	b		0.16666667	0.0666666666667	90.0	192.0	0.0333333333333	0.1333333333333	0.0666666666667	317.9834077358246	
10	253.17715883255005	pulse	0	t		0.16666667	0.0666666666667	90.0	192.0	0.0333333333333	0.1333333333333	0.0666666666667	318.3062117099762	
10	254.7772397994995	pulse	0	t		0.16666667	0.0666666666667	90.0	192.0	0.0333333333333	0.1333333333333	0.0666666666667	319.90629267692566	
11	254.8044559955597	stim	0		0	-1.0	1.0	-1.0	216.0	0.0333333333333	0.1333333333333	0.0666666666667	319.93350887298584	16.010769844055176
11	256.38004088401794	pulse	0	t		-1.0	1.0	-1.0	216.0	0.0333333333333	0.1333333333333	0.0666666666667	321.5090937614441	
11	256.6734628677368	response	0	b		-1.0	1.0	-1.0	216.0	0.0333333333333	0.1333333333333	0.0666666666667	321.80251574516296	
11	257.9802680015564	pulse	0	t		-1.0	1.0	-1.0	216.0	0.0333333333333	0.1333333333333	0.0666666666667	323.10932087898254	
11	259.58034896850586	pulse	0	t		-1.0	1.0	-1.0	216.0	0.0333333333333	0.1333333333333	0.0666666666667	324.709401845932	
11	259.8303987979889	response	0	b		-1.0	1.0	-1.0	216.0	0.0333333333333	0.1333333333333	0.0666666666667	324.95945167541504	
11	261.1807949542999	pulse	0	t		-1.0	1.0	-1.0	216.0	0.0333333333333	0.1333333333333	0.0666666666667	326.3098478317261	
11	262.7809429168701	pulse	0	t		-1.0	1.0	-1.0	216.0	0.0333333333333	0.1333333333333	0.0666666666667	327.90999579429626	
11	263.0974848270416	response	0	b		-1.0	1.0	-1.0	216.0	0.0333333333333	0.1333333333333	0.0666666666667	328.2265377044678	
11	264.3811638355255	pulse	0	t		-1.0	1.0	-1.0	216.0	0.0333333333333	0.1333333333333	0.0666666666667	329.51021671295166	
11	265.9813070297241	pulse	0	t		-1.0	1.0	-1.0	216.0	0.0333333333333	0.1333333333333	0.0666666666667	331.11035990715027	
11	266.0830638408661	response	0	b		-1.0	1.0	-1.0	216.0	0.0333333333333	0.1333333333333	0.0666666666667	331.21211671829224	
11	267.5815188884735	pulse	0	t		-1.0	1.0	-1.0	216.0	0.0333333333333	0.1333333333333	0.0666666666667	332.71057176589966	
11	268.34008598327637	response	0	b		-1.0	1.0	-1.0	216.0	0.0333333333333	0.1333333333333	0.0666666666667	333.4691388607025	
11	269.18184185028076	pulse	0	t		-1.0	1.0	-1.0	216.0	0.0333333333333	0.1333333333333	0.0666666666667	334.3108947277069	
11	270.7821328639984	pulse	0	t		-1.0	1.0	-1.0	216.0	0.0333333333333	0.1333333333333	0.0666666666667	335.91118574142456	
12	270.81522583961487	stim	0		0	0.16666667	0.0666666666667	0.0	232.0	0.0333333333333	0.1333333333333	0.0666666666667	335.944278717041	24.003584146499634
12	272.37752389907837	pulse	0	t		0.16666667	0.0666666666667	0.0	232.0	0.0333333333333	0.1333333333333	0.0666666666667	337.5065767765045	
12	272.4913818836212	response	0	b		0.16666667	0.0666666666667	0.0	232.0	0.0333333333333	0.1333333333333	0.0666666666667	337.62043476104736	
12	273.9774489402771	pulse	0	t		0.16666667	0.0666666666667	0.0	232.0	0.0333333333333	0.1333333333333	0.0666666666667	339.10650181770325	
12	275.57752299308777	pulse	0	t		0.16666667	0.0666666666667	0.0	232.0	0.0333333333333	0.1333333333333	0.0666666666667	340.7065758705139	
12	277.1765398979187	pulse	0	t		0.16666667	0.0666666666667	0.0	232.0	0.0333333333333	0.1333333333333	0.0666666666667	342.30559277534485	
12	278.7765598297119	pulse	0	t		0.16666667	0.0666666666667	0.0	232.0	0.0333333333333	0.1333333333333	0.0666666666667	343.90561270713806	
12	278.97245597839355	response	0	b		0.16666667	0.0666666666667	0.0	232.0	0.0333333333333	0.1333333333333	0.0666666666667	344.1015088558197	
12	280.3765330314636	pulse	0	t		0.16666667	0.0666666666667	0.0	232.0	0.0333333333333	0.1333333333333	0.0666666666667	345.50558590888977	
12	281.97654700279236	pulse	0	t		0.16666667	0.0666666666667	0.0	232.0	0.0333333333333	0.1333333333333	0.0666666666667	347.1055998802185	
12	282.3285028934479	response	0	b		0.16666667	0.0666666666667	0.0	232.0	0.0333333333333	0.1333333333333	0.0666666666667	347.457555770874	
12	283.57658290863037	pulse	0	t		0.16666667	0.0666666666667	0.0	232.0	0.0333333333333	0.1333333333333	0.0666666666667	348.7056357860565	
12	285.111585855484	response	0	b		0.16666667	0.0666666666667	0.0	232.0	0.0333333333333	0.1333333333333	0.0666666666667	350.24063873291016	
12	285.1764669418335	pulse	0	t		0.16666667	0.0666666666667	0.0	232.0	0.0333333333333	0.1333333333333	0.0666666666667	350.30551981925964	
12	286.7766258716583	pulse	0	t		0.16666667	0.0666666666667	0.0	232.0	0.0333333333333	0.1333333333333	0.0666666666667	351.9056787490845	
12	288.37661385536194	pulse	0	t		0.16666667	0.0666666666667	0.0	232.0	0.0333333333333	0.1333333333333	0.0666666666667	353.5056667327881	
12	289.97663497924805	pulse	0	t		0.16666667	0.0666666666667	0.0	232.0	0.0333333333333	0.1333333333333	0.0666666666667	355.1056878566742	
12	291.57668685913086	pulse	0	t		0.16666667	0.0666666666667	0.0	232.0	0.0333333333333	0.1333333333333	0.0666666666667	356.705739736557	
12	293.17672896385193	pulse	0	t		0.16666667	0.0666666666667	0.0	232.0	0.0333333333333	0.1333333333333	0.0666666666667	358.3057818412781	
12	294.7766869068146	pulse	0	t		0.16666667	0.0666666666667	0.0	232.0	0.0333333333333	0.1333333333333	0.0666666666667	359.9057397842407	
13	294.8188099861145	stim	0		0	0.16666667	0.0666666666667	270.0	256.0	0.0333333333333	0.1333333333333	0.0666666666667	359.94786286354065	23.9870388507843
13	295.96273589134216	response	0	b		0.16666667	0.0666666666667	270.0	256.0	0.0333333333333	0.1333333333333	0.0666666666667	361.0917887687683	
13	296.3766849040985	pulse	0	t		0.16666667	0.0666666666667	270.0	256.0	0.0333333333333	0.1333333333333	0.0666666666667	361.50573778152466	
13	297.9768228530884	pulse	0	t		0.16666667	0.0666666666667	270.0	256.0	0.0333333333333	0.1333333333333	0.0666666666667	363.1058757305145	
13	299.173712015152	response	0	b		0.16666667	0.0666666666667	270.0	256.0	0.0333333333333	0.1333333333333	0.0666666666667	364.3027648925781	
13	299.5767469406128	pulse	0	t		0.16666667	0.0666666666667	270.0	256.0	0.0333333333333	0.1333333333333	0.0666666666667	364.70579981803894	
13	301.1768298149109	pulse	0	t		0.16666667	0.0666666666667	270.0	256.0	0.0333333333333	0.1333333333333	0.0666666666667	366.30588269233704	
13	302.77677297592163	pulse	0	t		0.16666667	0.0666666666667	270.0	256.0	0.0333333333333	0.1333333333333	0.0666666666667	367.9058258533478	
13	304.09985399246216	response	0	b		0.16666667	0.0666666666667	270.0	256.0	0.0333333333333	0.1333333333333	0.0666666666667	369.2289068698883	
13	304.37674498558044	pulse	0	t		0.16666667	0.0666666666667	270.0	256.0	0.0333333333333	0.1333333333333	0.0666666666667	369.5057978630066	
13	305.97685980796814	pulse	0	t		0.16666667	0.0666666666667	270.0	256.0	0.0333333333333	0.1333333333333	0.0666666666667	371.1059126853943	
13	307.5768849849701	pulse	0	t		0.16666667	0.0666666666667	270.0	256.0	0.0333333333333	0.1333333333333	0.0666666666667	372.70593786239624	
13	308.25583386421204	response	0	b		0.16666667	0.0666666666667	270.0	256.0	0.0333333333333	0.1333333333333	0.0666666666667	373.3848867416382	
13	309.17689990997314	pulse	0	t		0.16666667	0.0666666666667	270.0	256.0	0.0333333333333	0.1333333333333	0.0666666666667	374.3059527873993	
13	309.6398549079895	response	0	b		0.16666667	0.0666666666667	270.0	256.0	0.0333333333333	0.1333333333333	0.0666666666667	374.76890778541565	
13	310.77692699432373	pulse	0	t		0.16666667	0.0666666666667	270.0	256.0	0.0333333333333	0.1333333333333	0.0666666666667	375.9059798717499	
13	312.3768558502197	pulse	0	t		0.16666667	0.0666666666667	270.0	256.0	0.0333333333333	0.1333333333333	0.0666666666667	377.5059087276459	
13	313.9769539833069	pulse	0	t		0.16666667	0.0666666666667	270.0	256.0	0.0333333333333	0.1333333333333	0.0666666666667	379.10600686073303	
13	315.5769999027252	pulse	0	t		0.16666667	0.0666666666667	270.0	256.0	0.0333333333333	0.1333333333333	0.0666666666667	380.70605278015137	
13	315.6347758769989	response	0	b		0.16666667	0.0666666666667	270.0	256.0	0.0333333333333	0.1333333333333	0.0666666666667	380.76382875442505	
13	317.1769850254059	pulse	0	t		0.16666667	0.0666666666667	270.0	256.0	0.0333333333333	0.1333333333333	0.0666666666667	382.30603790283203	
13	318.77702283859253	pulse	0	t		0.16666667	0.0666666666667	270.0	256.0	0.0333333333333	0.1333333333333	0.0666666666667	383.9060757160187	
14	318.8058488368988	stim	0		0								383.93490171432495	24.828678131103516
14	320.3811399936676	pulse	0	t									385.51019287109375	
14	321.9814009666443	pulse	0	t									387.11045384407043	
14	323.5815567970276	pulse	0	t									388.71060967445374	
14	325.1819338798523	pulse	0	t									390.31098675727844	
14	326.7820680141449	pulse	0	t									391.91112089157104	
14	326.94888186454773	response	0	b									392.0779347419739	
14	328.382287979126	pulse	0	t									393.5113408565521	
14	329.9825048446655	pulse	0	t									395.1115577220917	
14	331.582839012146	pulse	0	t									396.71189188957214	
14	333.18307280540466	pulse	0	t									398.3121256828308	
14	333.9998769760132	response	0	b									399.12892985343933	
14	334.7833340167999	pulse	0	t									399.9123868942261	
14	336.38342690467834	pulse	0	t									401.5124797821045	
14	336.608491897583	response	0	b									401.73754477500916	
14	337.977276802063	pulse	0	t									403.10632967948914	
14	339.5774919986725	pulse	0	t									404.70654487609863	
14	341.177747964859	pulse	0	t									406.30680084228516	
14	341.57773900032043	response	0	b									406.7067918777466	
14	342.7779929637909	pulse	0	t									407.90704584121704	
