trial_nr	onset	event_type	phase	response	nr_frames	bar_width	bar_refresh_time	bar_direction	start_time	bar_blank_duration	bar_blank_interval	bg_stim_refresh_time	onset_abs	duration
0	0.17488694190979004	stim	0		0								55.71856689453125	1.7835450172424316
0	1.9440820217132568	response	0	space									57.48776197433472	
1	1.9584319591522217	stim	0		0								57.50211191177368	40.04226016998291
1	41.97093105316162	pulse	0	t									97.51461100578308	
1	42.00069212913513	stim	1		0								97.54437208175659	0.0008039474487304688
1	42.00149607658386	stim	0		0								97.54517602920532	23.999955892562866
1	43.56499004364014	pulse	0	t									99.1086699962616	
1	45.16507601737976	pulse	0	t									100.70875597000122	
1	46.765275955200195	pulse	0	t									102.30895590782166	
1	46.773672103881836	response	0	b									102.3173520565033	
1	48.36564898490906	pulse	0	t									103.90932893753052	
1	49.96582293510437	pulse	0	t									105.50950288772583	
1	51.55948495864868	pulse	0	t									107.10316491127014	
1	53.15971302986145	pulse	0	t									108.70339298248291	
1	54.468241930007935	response	0	b									110.0119218826294	
1	54.75985908508301	pulse	0	t									110.30353903770447	
1	56.36019992828369	pulse	0	t									111.90387988090515	
1	57.960421085357666	pulse	0	t									113.50410103797913	
1	59.560672998428345	pulse	0	t									115.1043529510498	
1	61.160847902297974	pulse	0	t									116.70452785491943	
1	62.76112198829651	pulse	0	t									118.30480194091797	
1	64.36135005950928	pulse	0	t									119.90503001213074	
1	65.05130410194397	response	0	b									120.59498405456543	
1	65.95979690551758	pulse	0	t									121.50347685813904	
2	66.00145196914673	stim	0		0	0.16666667	0.0666666666667	270.0	24.0	0.0333333333333	0.1333333333333	0.0666666666667	121.54513192176819	23.995098114013672
2	67.55978012084961	pulse	0	t		0.16666667	0.0666666666667	270.0	24.0	0.0333333333333	0.1333333333333	0.0666666666667	123.10346007347107	
2	69.15973997116089	pulse	0	t		0.16666667	0.0666666666667	270.0	24.0	0.0333333333333	0.1333333333333	0.0666666666667	124.70341992378235	
2	70.43879508972168	response	0	b		0.16666667	0.0666666666667	270.0	24.0	0.0333333333333	0.1333333333333	0.0666666666667	125.98247504234314	
2	70.75967502593994	pulse	0	t		0.16666667	0.0666666666667	270.0	24.0	0.0333333333333	0.1333333333333	0.0666666666667	126.3033549785614	
2	72.3598461151123	pulse	0	t		0.16666667	0.0666666666667	270.0	24.0	0.0333333333333	0.1333333333333	0.0666666666667	127.90352606773376	
2	73.95986294746399	pulse	0	t		0.16666667	0.0666666666667	270.0	24.0	0.0333333333333	0.1333333333333	0.0666666666667	129.50354290008545	
2	75.55985307693481	pulse	0	t		0.16666667	0.0666666666667	270.0	24.0	0.0333333333333	0.1333333333333	0.0666666666667	131.10353302955627	
2	76.67482495307922	response	0	b		0.16666667	0.0666666666667	270.0	24.0	0.0333333333333	0.1333333333333	0.0666666666667	132.21850490570068	
2	77.1598129272461	pulse	0	t		0.16666667	0.0666666666667	270.0	24.0	0.0333333333333	0.1333333333333	0.0666666666667	132.70349287986755	
2	78.75979995727539	pulse	0	t		0.16666667	0.0666666666667	270.0	24.0	0.0333333333333	0.1333333333333	0.0666666666667	134.30347990989685	
2	79.45480704307556	response	0	b		0.16666667	0.0666666666667	270.0	24.0	0.0333333333333	0.1333333333333	0.0666666666667	134.99848699569702	
2	80.35991597175598	pulse	0	t		0.16666667	0.0666666666667	270.0	24.0	0.0333333333333	0.1333333333333	0.0666666666667	135.90359592437744	
2	81.95996499061584	pulse	0	t		0.16666667	0.0666666666667	270.0	24.0	0.0333333333333	0.1333333333333	0.0666666666667	137.5036449432373	
2	83.55989909172058	pulse	0	t		0.16666667	0.0666666666667	270.0	24.0	0.0333333333333	0.1333333333333	0.0666666666667	139.10357904434204	
2	84.27589106559753	response	0	b		0.16666667	0.0666666666667	270.0	24.0	0.0333333333333	0.1333333333333	0.0666666666667	139.819571018219	
2	85.1599509716034	pulse	0	t		0.16666667	0.0666666666667	270.0	24.0	0.0333333333333	0.1333333333333	0.0666666666667	140.70363092422485	
2	86.49995589256287	response	0	b		0.16666667	0.0666666666667	270.0	24.0	0.0333333333333	0.1333333333333	0.0666666666667	142.04363584518433	
2	86.75984692573547	pulse	0	t		0.16666667	0.0666666666667	270.0	24.0	0.0333333333333	0.1333333333333	0.0666666666667	142.30352687835693	
2	88.35994911193848	pulse	0	t		0.16666667	0.0666666666667	270.0	24.0	0.0333333333333	0.1333333333333	0.0666666666667	143.90362906455994	
2	89.96003198623657	pulse	0	t		0.16666667	0.0666666666667	270.0	24.0	0.0333333333333	0.1333333333333	0.0666666666667	145.50371193885803	
3	89.9965500831604	stim	0		0	0.16666667	0.0666666666667	0.0	48.0	0.0333333333333	0.1333333333333	0.0666666666667	145.54023003578186	23.995282888412476
3	91.56008100509644	pulse	0	t		0.16666667	0.0666666666667	0.0	48.0	0.0333333333333	0.1333333333333	0.0666666666667	147.1037609577179	
3	92.33809089660645	response	0	b		0.16666667	0.0666666666667	0.0	48.0	0.0333333333333	0.1333333333333	0.0666666666667	147.8817708492279	
3	93.16008806228638	pulse	0	t		0.16666667	0.0666666666667	0.0	48.0	0.0333333333333	0.1333333333333	0.0666666666667	148.70376801490784	
3	94.76008701324463	pulse	0	t		0.16666667	0.0666666666667	0.0	48.0	0.0333333333333	0.1333333333333	0.0666666666667	150.3037669658661	
3	96.36016392707825	pulse	0	t		0.16666667	0.0666666666667	0.0	48.0	0.0333333333333	0.1333333333333	0.0666666666667	151.9038438796997	
3	97.96014308929443	pulse	0	t		0.16666667	0.0666666666667	0.0	48.0	0.0333333333333	0.1333333333333	0.0666666666667	153.5038230419159	
3	99.56015110015869	pulse	0	t		0.16666667	0.0666666666667	0.0	48.0	0.0333333333333	0.1333333333333	0.0666666666667	155.10383105278015	
3	101.16017198562622	pulse	0	t		0.16666667	0.0666666666667	0.0	48.0	0.0333333333333	0.1333333333333	0.0666666666667	156.70385193824768	
3	102.76018404960632	pulse	0	t		0.16666667	0.0666666666667	0.0	48.0	0.0333333333333	0.1333333333333	0.0666666666667	158.30386400222778	
3	104.36022996902466	pulse	0	t		0.16666667	0.0666666666667	0.0	48.0	0.0333333333333	0.1333333333333	0.0666666666667	159.90390992164612	
3	104.39300394058228	response	0	b		0.16666667	0.0666666666667	0.0	48.0	0.0333333333333	0.1333333333333	0.0666666666667	159.93668389320374	
3	105.96021103858948	pulse	0	t		0.16666667	0.0666666666667	0.0	48.0	0.0333333333333	0.1333333333333	0.0666666666667	161.50389099121094	
3	107.56019902229309	pulse	0	t		0.16666667	0.0666666666667	0.0	48.0	0.0333333333333	0.1333333333333	0.0666666666667	163.10387897491455	
3	109.16027903556824	pulse	0	t		0.16666667	0.0666666666667	0.0	48.0	0.0333333333333	0.1333333333333	0.0666666666667	164.7039589881897	
3	109.19706392288208	response	0	b		0.16666667	0.0666666666667	0.0	48.0	0.0333333333333	0.1333333333333	0.0666666666667	164.74074387550354	
3	110.76029801368713	pulse	0	t		0.16666667	0.0666666666667	0.0	48.0	0.0333333333333	0.1333333333333	0.0666666666667	166.3039779663086	
3	112.13432502746582	response	0	b		0.16666667	0.0666666666667	0.0	48.0	0.0333333333333	0.1333333333333	0.0666666666667	167.67800498008728	
3	112.3602249622345	pulse	0	t		0.16666667	0.0666666666667	0.0	48.0	0.0333333333333	0.1333333333333	0.0666666666667	167.90390491485596	
3	113.96033310890198	pulse	0	t		0.16666667	0.0666666666667	0.0	48.0	0.0333333333333	0.1333333333333	0.0666666666667	169.50401306152344	
4	113.99183297157288	stim	0		0	-1.0	1.0	-1.0	72.0	0.0333333333333	0.1333333333333	0.0666666666667	169.53551292419434	16.002398014068604
4	115.35058999061584	response	0	b		-1.0	1.0	-1.0	72.0	0.0333333333333	0.1333333333333	0.0666666666667	170.8942699432373	
4	115.56069493293762	pulse	0	t		-1.0	1.0	-1.0	72.0	0.0333333333333	0.1333333333333	0.0666666666667	171.10437488555908	
4	117.16094899177551	pulse	0	t		-1.0	1.0	-1.0	72.0	0.0333333333333	0.1333333333333	0.0666666666667	172.70462894439697	
4	118.76124691963196	pulse	0	t		-1.0	1.0	-1.0	72.0	0.0333333333333	0.1333333333333	0.0666666666667	174.30492687225342	
4	120.36147499084473	pulse	0	t		-1.0	1.0	-1.0	72.0	0.0333333333333	0.1333333333333	0.0666666666667	175.9051549434662	
4	121.96167993545532	pulse	0	t		-1.0	1.0	-1.0	72.0	0.0333333333333	0.1333333333333	0.0666666666667	177.50535988807678	
4	123.56210803985596	pulse	0	t		-1.0	1.0	-1.0	72.0	0.0333333333333	0.1333333333333	0.0666666666667	179.10578799247742	
4	124.21024894714355	response	0	b		-1.0	1.0	-1.0	72.0	0.0333333333333	0.1333333333333	0.0666666666667	179.75392889976501	
4	125.16212105751038	pulse	0	t		-1.0	1.0	-1.0	72.0	0.0333333333333	0.1333333333333	0.0666666666667	180.70580101013184	
4	126.76046204566956	pulse	0	t		-1.0	1.0	-1.0	72.0	0.0333333333333	0.1333333333333	0.0666666666667	182.30414199829102	
4	128.36072707176208	pulse	0	t		-1.0	1.0	-1.0	72.0	0.0333333333333	0.1333333333333	0.0666666666667	183.90440702438354	
4	129.96113300323486	pulse	0	t		-1.0	1.0	-1.0	72.0	0.0333333333333	0.1333333333333	0.0666666666667	185.50481295585632	
5	129.99423098564148	stim	0		0	0.16666667	0.0666666666667	90.0	88.0	0.0333333333333	0.1333333333333	0.0666666666667	185.53791093826294	24.003642082214355
5	131.56063389778137	pulse	0	t		0.16666667	0.0666666666667	90.0	88.0	0.0333333333333	0.1333333333333	0.0666666666667	187.10431385040283	
5	133.16066098213196	pulse	0	t		0.16666667	0.0666666666667	90.0	88.0	0.0333333333333	0.1333333333333	0.0666666666667	188.70434093475342	
5	134.20151209831238	response	0	b		0.16666667	0.0666666666667	90.0	88.0	0.0333333333333	0.1333333333333	0.0666666666667	189.74519205093384	
5	134.76052498817444	pulse	0	t		0.16666667	0.0666666666667	90.0	88.0	0.0333333333333	0.1333333333333	0.0666666666667	190.3042049407959	
5	136.36059308052063	pulse	0	t		0.16666667	0.0666666666667	90.0	88.0	0.0333333333333	0.1333333333333	0.0666666666667	191.9042730331421	
5	137.8385820388794	response	0	b		0.16666667	0.0666666666667	90.0	88.0	0.0333333333333	0.1333333333333	0.0666666666667	193.38226199150085	
5	137.96046805381775	pulse	0	t		0.16666667	0.0666666666667	90.0	88.0	0.0333333333333	0.1333333333333	0.0666666666667	193.5041480064392	
5	139.559641122818	pulse	0	t		0.16666667	0.0666666666667	90.0	88.0	0.0333333333333	0.1333333333333	0.0666666666667	195.10332107543945	
5	141.15963697433472	pulse	0	t		0.16666667	0.0666666666667	90.0	88.0	0.0333333333333	0.1333333333333	0.0666666666667	196.70331692695618	
5	141.23340702056885	response	0	b		0.16666667	0.0666666666667	90.0	88.0	0.0333333333333	0.1333333333333	0.0666666666667	196.7770869731903	
5	142.75962090492249	pulse	0	t		0.16666667	0.0666666666667	90.0	88.0	0.0333333333333	0.1333333333333	0.0666666666667	198.30330085754395	
5	144.3596329689026	pulse	0	t		0.16666667	0.0666666666667	90.0	88.0	0.0333333333333	0.1333333333333	0.0666666666667	199.90331292152405	
5	145.9597270488739	pulse	0	t		0.16666667	0.0666666666667	90.0	88.0	0.0333333333333	0.1333333333333	0.0666666666667	201.50340700149536	
5	147.5597059726715	pulse	0	t		0.16666667	0.0666666666667	90.0	88.0	0.0333333333333	0.1333333333333	0.0666666666667	203.10338592529297	
5	148.8526771068573	response	0	b		0.16666667	0.0666666666667	90.0	88.0	0.0333333333333	0.1333333333333	0.0666666666667	204.39635705947876	
5	149.1596701145172	pulse	0	t		0.16666667	0.0666666666667	90.0	88.0	0.0333333333333	0.1333333333333	0.0666666666667	204.70335006713867	
5	150.75972604751587	pulse	0	t		0.16666667	0.0666666666667	90.0	88.0	0.0333333333333	0.1333333333333	0.0666666666667	206.30340600013733	
5	152.35974597930908	pulse	0	t		0.16666667	0.0666666666667	90.0	88.0	0.0333333333333	0.1333333333333	0.0666666666667	207.90342593193054	
5	153.8997941017151	response	0	b		0.16666667	0.0666666666667	90.0	88.0	0.0333333333333	0.1333333333333	0.0666666666667	209.44347405433655	
5	153.9596710205078	pulse	0	t		0.16666667	0.0666666666667	90.0	88.0	0.0333333333333	0.1333333333333	0.0666666666667	209.50335097312927	
6	153.99787306785583	stim	0		0	0.16666667	0.0666666666667	180.0	112.0	0.0333333333333	0.1333333333333	0.0666666666667	209.5415530204773	23.995194911956787
6	155.55978202819824	pulse	0	t		0.16666667	0.0666666666667	180.0	112.0	0.0333333333333	0.1333333333333	0.0666666666667	211.1034619808197	
6	157.15986609458923	pulse	0	t		0.16666667	0.0666666666667	180.0	112.0	0.0333333333333	0.1333333333333	0.0666666666667	212.7035460472107	
6	157.17163395881653	response	0	b		0.16666667	0.0666666666667	180.0	112.0	0.0333333333333	0.1333333333333	0.0666666666667	212.715313911438	
6	158.75982189178467	pulse	0	t		0.16666667	0.0666666666667	180.0	112.0	0.0333333333333	0.1333333333333	0.0666666666667	214.30350184440613	
6	160.35993909835815	pulse	0	t		0.16666667	0.0666666666667	180.0	112.0	0.0333333333333	0.1333333333333	0.0666666666667	215.90361905097961	
6	161.0928430557251	response	0	b		0.16666667	0.0666666666667	180.0	112.0	0.0333333333333	0.1333333333333	0.0666666666667	216.63652300834656	
6	161.95983791351318	pulse	0	t		0.16666667	0.0666666666667	180.0	112.0	0.0333333333333	0.1333333333333	0.0666666666667	217.50351786613464	
6	163.5599820613861	pulse	0	t		0.16666667	0.0666666666667	180.0	112.0	0.0333333333333	0.1333333333333	0.0666666666667	219.10366201400757	
6	164.1190459728241	response	0	b		0.16666667	0.0666666666667	180.0	112.0	0.0333333333333	0.1333333333333	0.0666666666667	219.66272592544556	
6	165.15999507904053	pulse	0	t		0.16666667	0.0666666666667	180.0	112.0	0.0333333333333	0.1333333333333	0.0666666666667	220.703675031662	
6	166.20105409622192	response	0	b		0.16666667	0.0666666666667	180.0	112.0	0.0333333333333	0.1333333333333	0.0666666666667	221.74473404884338	
6	166.75990104675293	pulse	0	t		0.16666667	0.0666666666667	180.0	112.0	0.0333333333333	0.1333333333333	0.0666666666667	222.3035809993744	
6	168.35997796058655	pulse	0	t		0.16666667	0.0666666666667	180.0	112.0	0.0333333333333	0.1333333333333	0.0666666666667	223.903657913208	
6	168.36579990386963	response	0	b		0.16666667	0.0666666666667	180.0	112.0	0.0333333333333	0.1333333333333	0.0666666666667	223.9094798564911	
6	169.95997190475464	pulse	0	t		0.16666667	0.0666666666667	180.0	112.0	0.0333333333333	0.1333333333333	0.0666666666667	225.5036518573761	
6	171.56001996994019	pulse	0	t		0.16666667	0.0666666666667	180.0	112.0	0.0333333333333	0.1333333333333	0.0666666666667	227.10369992256165	
6	173.15997195243835	pulse	0	t		0.16666667	0.0666666666667	180.0	112.0	0.0333333333333	0.1333333333333	0.0666666666667	228.70365190505981	
6	174.0521719455719	response	0	b		0.16666667	0.0666666666667	180.0	112.0	0.0333333333333	0.1333333333333	0.0666666666667	229.59585189819336	
6	174.76010394096375	pulse	0	t		0.16666667	0.0666666666667	180.0	112.0	0.0333333333333	0.1333333333333	0.0666666666667	230.3037838935852	
6	176.36014008522034	pulse	0	t		0.16666667	0.0666666666667	180.0	112.0	0.0333333333333	0.1333333333333	0.0666666666667	231.9038200378418	
6	177.3101360797882	response	0	b		0.16666667	0.0666666666667	180.0	112.0	0.0333333333333	0.1333333333333	0.0666666666667	232.85381603240967	
6	177.96010303497314	pulse	0	t		0.16666667	0.0666666666667	180.0	112.0	0.0333333333333	0.1333333333333	0.0666666666667	233.5037829875946	
7	177.99306797981262	stim	0		0	-1.0	1.0	-1.0	136.0	0.0333333333333	0.1333333333333	0.0666666666667	233.53674793243408	16.00236201286316
7	179.56183099746704	pulse	0	t		-1.0	1.0	-1.0	136.0	0.0333333333333	0.1333333333333	0.0666666666667	235.1055109500885	
7	181.16026711463928	pulse	0	t		-1.0	1.0	-1.0	136.0	0.0333333333333	0.1333333333333	0.0666666666667	236.70394706726074	
7	182.3439381122589	response	0	b		-1.0	1.0	-1.0	136.0	0.0333333333333	0.1333333333333	0.0666666666667	237.88761806488037	
7	182.76051211357117	pulse	0	t		-1.0	1.0	-1.0	136.0	0.0333333333333	0.1333333333333	0.0666666666667	238.30419206619263	
7	184.36089897155762	pulse	0	t		-1.0	1.0	-1.0	136.0	0.0333333333333	0.1333333333333	0.0666666666667	239.90457892417908	
7	185.45275497436523	response	0	b		-1.0	1.0	-1.0	136.0	0.0333333333333	0.1333333333333	0.0666666666667	240.9964349269867	
7	185.9611120223999	pulse	0	t		-1.0	1.0	-1.0	136.0	0.0333333333333	0.1333333333333	0.0666666666667	241.50479197502136	
7	187.5612280368805	pulse	0	t		-1.0	1.0	-1.0	136.0	0.0333333333333	0.1333333333333	0.0666666666667	243.10490798950195	
7	187.6362590789795	response	0	b		-1.0	1.0	-1.0	136.0	0.0333333333333	0.1333333333333	0.0666666666667	243.17993903160095	
7	189.16148805618286	pulse	0	t		-1.0	1.0	-1.0	136.0	0.0333333333333	0.1333333333333	0.0666666666667	244.70516800880432	
7	190.65336894989014	response	0	b		-1.0	1.0	-1.0	136.0	0.0333333333333	0.1333333333333	0.0666666666667	246.1970489025116	
7	190.7617859840393	pulse	0	t		-1.0	1.0	-1.0	136.0	0.0333333333333	0.1333333333333	0.0666666666667	246.30546593666077	
7	192.36207795143127	pulse	0	t		-1.0	1.0	-1.0	136.0	0.0333333333333	0.1333333333333	0.0666666666667	247.90575790405273	
7	193.96221494674683	pulse	0	t		-1.0	1.0	-1.0	136.0	0.0333333333333	0.1333333333333	0.0666666666667	249.5058948993683	
8	193.99542999267578	stim	0		0	-1.0	1.0	-1.0	152.0	0.0333333333333	0.1333333333333	0.0666666666667	249.53910994529724	16.002490997314453
8	195.56247210502625	pulse	0	t		-1.0	1.0	-1.0	152.0	0.0333333333333	0.1333333333333	0.0666666666667	251.1061520576477	
8	197.16277194023132	pulse	0	t		-1.0	1.0	-1.0	152.0	0.0333333333333	0.1333333333333	0.0666666666667	252.70645189285278	
8	197.95455312728882	response	0	b		-1.0	1.0	-1.0	152.0	0.0333333333333	0.1333333333333	0.0666666666667	253.49823307991028	
8	198.76302289962769	pulse	0	t		-1.0	1.0	-1.0	152.0	0.0333333333333	0.1333333333333	0.0666666666667	254.30670285224915	
8	200.36323404312134	pulse	0	t		-1.0	1.0	-1.0	152.0	0.0333333333333	0.1333333333333	0.0666666666667	255.9069139957428	
8	201.96340894699097	pulse	0	t		-1.0	1.0	-1.0	152.0	0.0333333333333	0.1333333333333	0.0666666666667	257.5070888996124	
8	203.56368899345398	pulse	0	t		-1.0	1.0	-1.0	152.0	0.0333333333333	0.1333333333333	0.0666666666667	259.10736894607544	
8	205.16387605667114	pulse	0	t		-1.0	1.0	-1.0	152.0	0.0333333333333	0.1333333333333	0.0666666666667	260.7075560092926	
8	205.7222878932953	response	0	b		-1.0	1.0	-1.0	152.0	0.0333333333333	0.1333333333333	0.0666666666667	261.26596784591675	
8	206.76421189308167	pulse	0	t		-1.0	1.0	-1.0	152.0	0.0333333333333	0.1333333333333	0.0666666666667	262.3078918457031	
8	207.90603590011597	response	0	b		-1.0	1.0	-1.0	152.0	0.0333333333333	0.1333333333333	0.0666666666667	263.4497158527374	
8	208.36435794830322	pulse	0	t		-1.0	1.0	-1.0	152.0	0.0333333333333	0.1333333333333	0.0666666666667	263.9080379009247	
8	209.96465396881104	pulse	0	t		-1.0	1.0	-1.0	152.0	0.0333333333333	0.1333333333333	0.0666666666667	265.5083339214325	
9	209.99792098999023	stim	0		0	0.16666667	0.0666666666667	180.0	168.0	0.0333333333333	0.1333333333333	0.0666666666667	265.5416009426117	23.995126008987427
9	211.56051111221313	pulse	0	t		0.16666667	0.0666666666667	180.0	168.0	0.0333333333333	0.1333333333333	0.0666666666667	267.1041910648346	
9	213.16054701805115	pulse	0	t		0.16666667	0.0666666666667	180.0	168.0	0.0333333333333	0.1333333333333	0.0666666666667	268.7042269706726	
9	214.76051807403564	pulse	0	t		0.16666667	0.0666666666667	180.0	168.0	0.0333333333333	0.1333333333333	0.0666666666667	270.3041980266571	
9	216.36050295829773	pulse	0	t		0.16666667	0.0666666666667	180.0	168.0	0.0333333333333	0.1333333333333	0.0666666666667	271.9041829109192	
9	217.96057510375977	pulse	0	t		0.16666667	0.0666666666667	180.0	168.0	0.0333333333333	0.1333333333333	0.0666666666667	273.5042550563812	
9	218.1014060974121	response	0	b		0.16666667	0.0666666666667	180.0	168.0	0.0333333333333	0.1333333333333	0.0666666666667	273.64508605003357	
9	219.56062293052673	pulse	0	t		0.16666667	0.0666666666667	180.0	168.0	0.0333333333333	0.1333333333333	0.0666666666667	275.1043028831482	
9	220.49163007736206	response	0	b		0.16666667	0.0666666666667	180.0	168.0	0.0333333333333	0.1333333333333	0.0666666666667	276.0353100299835	
9	221.16055393218994	pulse	0	t		0.16666667	0.0666666666667	180.0	168.0	0.0333333333333	0.1333333333333	0.0666666666667	276.7042338848114	
9	222.76064205169678	pulse	0	t		0.16666667	0.0666666666667	180.0	168.0	0.0333333333333	0.1333333333333	0.0666666666667	278.30432200431824	
9	223.32146096229553	response	0	b		0.16666667	0.0666666666667	180.0	168.0	0.0333333333333	0.1333333333333	0.0666666666667	278.865140914917	
9	224.3606231212616	pulse	0	t		0.16666667	0.0666666666667	180.0	168.0	0.0333333333333	0.1333333333333	0.0666666666667	279.90430307388306	
9	225.62858891487122	response	0	b		0.16666667	0.0666666666667	180.0	168.0	0.0333333333333	0.1333333333333	0.0666666666667	281.1722688674927	
9	225.9605851173401	pulse	0	t		0.16666667	0.0666666666667	180.0	168.0	0.0333333333333	0.1333333333333	0.0666666666667	281.50426506996155	
9	227.5607099533081	pulse	0	t		0.16666667	0.0666666666667	180.0	168.0	0.0333333333333	0.1333333333333	0.0666666666667	283.10438990592957	
9	229.05916810035706	response	0	b		0.16666667	0.0666666666667	180.0	168.0	0.0333333333333	0.1333333333333	0.0666666666667	284.6028480529785	
9	229.1606240272522	pulse	0	t		0.16666667	0.0666666666667	180.0	168.0	0.0333333333333	0.1333333333333	0.0666666666667	284.70430397987366	
9	230.7608199119568	pulse	0	t		0.16666667	0.0666666666667	180.0	168.0	0.0333333333333	0.1333333333333	0.0666666666667	286.30449986457825	
9	232.36083507537842	pulse	0	t		0.16666667	0.0666666666667	180.0	168.0	0.0333333333333	0.1333333333333	0.0666666666667	287.9045150279999	
9	232.9727818965912	response	0	b		0.16666667	0.0666666666667	180.0	168.0	0.0333333333333	0.1333333333333	0.0666666666667	288.51646184921265	
9	233.95988297462463	pulse	0	t		0.16666667	0.0666666666667	180.0	168.0	0.0333333333333	0.1333333333333	0.0666666666667	289.5035629272461	
10	233.99304699897766	stim	0		0	0.16666667	0.0666666666667	90.0	192.0	0.0333333333333	0.1333333333333	0.0666666666667	289.5367269515991	23.99534797668457
10	235.55974197387695	pulse	0	t		0.16666667	0.0666666666667	90.0	192.0	0.0333333333333	0.1333333333333	0.0666666666667	291.1034219264984	
10	237.1597330570221	pulse	0	t		0.16666667	0.0666666666667	90.0	192.0	0.0333333333333	0.1333333333333	0.0666666666667	292.70341300964355	
10	237.34361100196838	response	0	b		0.16666667	0.0666666666667	90.0	192.0	0.0333333333333	0.1333333333333	0.0666666666667	292.88729095458984	
10	238.75975489616394	pulse	0	t		0.16666667	0.0666666666667	90.0	192.0	0.0333333333333	0.1333333333333	0.0666666666667	294.3034348487854	
10	239.38180208206177	response	0	b		0.16666667	0.0666666666667	90.0	192.0	0.0333333333333	0.1333333333333	0.0666666666667	294.9254820346832	
10	240.3601610660553	pulse	0	t		0.16666667	0.0666666666667	90.0	192.0	0.0333333333333	0.1333333333333	0.0666666666667	295.90384101867676	
10	241.95982694625854	pulse	0	t		0.16666667	0.0666666666667	90.0	192.0	0.0333333333333	0.1333333333333	0.0666666666667	297.50350689888	
10	242.43077611923218	response	0	b		0.16666667	0.0666666666667	90.0	192.0	0.0333333333333	0.1333333333333	0.0666666666667	297.97445607185364	
10	243.55985689163208	pulse	0	t		0.16666667	0.0666666666667	90.0	192.0	0.0333333333333	0.1333333333333	0.0666666666667	299.10353684425354	
10	245.15990805625916	pulse	0	t		0.16666667	0.0666666666667	90.0	192.0	0.0333333333333	0.1333333333333	0.0666666666667	300.7035880088806	
10	246.75989198684692	pulse	0	t		0.16666667	0.0666666666667	90.0	192.0	0.0333333333333	0.1333333333333	0.0666666666667	302.3035719394684	
10	247.13686800003052	response	0	b		0.16666667	0.0666666666667	90.0	192.0	0.0333333333333	0.1333333333333	0.0666666666667	302.680547952652	
10	248.35992097854614	pulse	0	t		0.16666667	0.0666666666667	90.0	192.0	0.0333333333333	0.1333333333333	0.0666666666667	303.9036009311676	
10	249.95996594429016	pulse	0	t		0.16666667	0.0666666666667	90.0	192.0	0.0333333333333	0.1333333333333	0.0666666666667	305.5036458969116	
10	250.33192205429077	response	0	b		0.16666667	0.0666666666667	90.0	192.0	0.0333333333333	0.1333333333333	0.0666666666667	305.87560200691223	
10	251.55996203422546	pulse	0	t		0.16666667	0.0666666666667	90.0	192.0	0.0333333333333	0.1333333333333	0.0666666666667	307.1036419868469	
10	253.15997004508972	pulse	0	t		0.16666667	0.0666666666667	90.0	192.0	0.0333333333333	0.1333333333333	0.0666666666667	308.7036499977112	
10	253.66794204711914	response	0	b		0.16666667	0.0666666666667	90.0	192.0	0.0333333333333	0.1333333333333	0.0666666666667	309.2116219997406	
10	254.7600281238556	pulse	0	t		0.16666667	0.0666666666667	90.0	192.0	0.0333333333333	0.1333333333333	0.0666666666667	310.30370807647705	
10	256.3599979877472	pulse	0	t		0.16666667	0.0666666666667	90.0	192.0	0.0333333333333	0.1333333333333	0.0666666666667	311.90367794036865	
10	257.96009492874146	pulse	0	t		0.16666667	0.0666666666667	90.0	192.0	0.0333333333333	0.1333333333333	0.0666666666667	313.5037748813629	
11	257.98839497566223	stim	0		0	-1.0	1.0	-1.0	216.0	0.0333333333333	0.1333333333333	0.0666666666667	313.5320749282837	16.01067805290222
11	258.9220280647278	response	0	b		-1.0	1.0	-1.0	216.0	0.0333333333333	0.1333333333333	0.0666666666667	314.46570801734924	
11	259.5637710094452	pulse	0	t		-1.0	1.0	-1.0	216.0	0.0333333333333	0.1333333333333	0.0666666666667	315.10745096206665	
11	261.16406512260437	pulse	0	t		-1.0	1.0	-1.0	216.0	0.0333333333333	0.1333333333333	0.0666666666667	316.70774507522583	
11	262.3642110824585	response	0	b		-1.0	1.0	-1.0	216.0	0.0333333333333	0.1333333333333	0.0666666666667	317.90789103507996	
11	262.7642140388489	pulse	0	t		-1.0	1.0	-1.0	216.0	0.0333333333333	0.1333333333333	0.0666666666667	318.30789399147034	
11	264.3644030094147	pulse	0	t		-1.0	1.0	-1.0	216.0	0.0333333333333	0.1333333333333	0.0666666666667	319.90808296203613	
11	264.6393930912018	response	0	b		-1.0	1.0	-1.0	216.0	0.0333333333333	0.1333333333333	0.0666666666667	320.18307304382324	
11	265.96466302871704	pulse	0	t		-1.0	1.0	-1.0	216.0	0.0333333333333	0.1333333333333	0.0666666666667	321.5083429813385	
11	267.1481931209564	response	0	b		-1.0	1.0	-1.0	216.0	0.0333333333333	0.1333333333333	0.0666666666667	322.6918730735779	
11	267.56489992141724	pulse	0	t		-1.0	1.0	-1.0	216.0	0.0333333333333	0.1333333333333	0.0666666666667	323.1085798740387	
11	269.16518902778625	pulse	0	t		-1.0	1.0	-1.0	216.0	0.0333333333333	0.1333333333333	0.0666666666667	324.7088689804077	
11	269.36515712738037	response	0	b		-1.0	1.0	-1.0	216.0	0.0333333333333	0.1333333333333	0.0666666666667	324.90883708000183	
11	270.7653241157532	pulse	0	t		-1.0	1.0	-1.0	216.0	0.0333333333333	0.1333333333333	0.0666666666667	326.30900406837463	
11	272.36563301086426	pulse	0	t		-1.0	1.0	-1.0	216.0	0.0333333333333	0.1333333333333	0.0666666666667	327.9093129634857	
11	272.5405740737915	response	0	b		-1.0	1.0	-1.0	216.0	0.0333333333333	0.1333333333333	0.0666666666667	328.08425402641296	
11	273.96585392951965	pulse	0	t		-1.0	1.0	-1.0	216.0	0.0333333333333	0.1333333333333	0.0666666666667	329.5095338821411	
12	273.99907302856445	stim	0		0	0.16666667	0.0666666666667	0.0	232.0	0.0333333333333	0.1333333333333	0.0666666666667	329.5427529811859	23.995317935943604
12	275.5602900981903	pulse	0	t		0.16666667	0.0666666666667	0.0	232.0	0.0333333333333	0.1333333333333	0.0666666666667	331.10397005081177	
12	276.795303106308	response	0	b		0.16666667	0.0666666666667	0.0	232.0	0.0333333333333	0.1333333333333	0.0666666666667	332.33898305892944	
12	277.1602039337158	pulse	0	t		0.16666667	0.0666666666667	0.0	232.0	0.0333333333333	0.1333333333333	0.0666666666667	332.7038838863373	
12	278.760311126709	pulse	0	t		0.16666667	0.0666666666667	0.0	232.0	0.0333333333333	0.1333333333333	0.0666666666667	334.30399107933044	
12	280.3603138923645	pulse	0	t		0.16666667	0.0666666666667	0.0	232.0	0.0333333333333	0.1333333333333	0.0666666666667	335.90399384498596	
12	281.0803120136261	response	0	b		0.16666667	0.0666666666667	0.0	232.0	0.0333333333333	0.1333333333333	0.0666666666667	336.62399196624756	
12	281.96032190322876	pulse	0	t		0.16666667	0.0666666666667	0.0	232.0	0.0333333333333	0.1333333333333	0.0666666666667	337.5040018558502	
12	283.5603311061859	pulse	0	t		0.16666667	0.0666666666667	0.0	232.0	0.0333333333333	0.1333333333333	0.0666666666667	339.1040110588074	
12	285.1603970527649	pulse	0	t		0.16666667	0.0666666666667	0.0	232.0	0.0333333333333	0.1333333333333	0.0666666666667	340.70407700538635	
12	285.4823200702667	response	0	b		0.16666667	0.0666666666667	0.0	232.0	0.0333333333333	0.1333333333333	0.0666666666667	341.0260000228882	
12	286.76038098335266	pulse	0	t		0.16666667	0.0666666666667	0.0	232.0	0.0333333333333	0.1333333333333	0.0666666666667	342.3040609359741	
12	288.360435962677	pulse	0	t		0.16666667	0.0666666666667	0.0	232.0	0.0333333333333	0.1333333333333	0.0666666666667	343.90411591529846	
12	289.44037795066833	response	0	b		0.16666667	0.0666666666667	0.0	232.0	0.0333333333333	0.1333333333333	0.0666666666667	344.9840579032898	
12	289.96042799949646	pulse	0	t		0.16666667	0.0666666666667	0.0	232.0	0.0333333333333	0.1333333333333	0.0666666666667	345.5041079521179	
12	291.5604090690613	pulse	0	t		0.16666667	0.0666666666667	0.0	232.0	0.0333333333333	0.1333333333333	0.0666666666667	347.10408902168274	
12	291.86022210121155	response	0	b		0.16666667	0.0666666666667	0.0	232.0	0.0333333333333	0.1333333333333	0.0666666666667	347.403902053833	
12	293.1604459285736	pulse	0	t		0.16666667	0.0666666666667	0.0	232.0	0.0333333333333	0.1333333333333	0.0666666666667	348.70412588119507	
12	294.7605381011963	pulse	0	t		0.16666667	0.0666666666667	0.0	232.0	0.0333333333333	0.1333333333333	0.0666666666667	350.30421805381775	
12	296.3605389595032	pulse	0	t		0.16666667	0.0666666666667	0.0	232.0	0.0333333333333	0.1333333333333	0.0666666666667	351.90421891212463	
12	297.9605519771576	pulse	0	t		0.16666667	0.0666666666667	0.0	232.0	0.0333333333333	0.1333333333333	0.0666666666667	353.50423192977905	
13	297.99439096450806	stim	0		0	0.16666667	0.0666666666667	270.0	256.0	0.0333333333333	0.1333333333333	0.0666666666667	353.5380709171295	24.003468990325928
13	299.56055212020874	pulse	0	t		0.16666667	0.0666666666667	270.0	256.0	0.0333333333333	0.1333333333333	0.0666666666667	355.1042320728302	
13	301.1605770587921	pulse	0	t		0.16666667	0.0666666666667	270.0	256.0	0.0333333333333	0.1333333333333	0.0666666666667	356.7042570114136	
13	302.7605130672455	pulse	0	t		0.16666667	0.0666666666667	270.0	256.0	0.0333333333333	0.1333333333333	0.0666666666667	358.30419301986694	
13	304.3605709075928	pulse	0	t		0.16666667	0.0666666666667	270.0	256.0	0.0333333333333	0.1333333333333	0.0666666666667	359.90425086021423	
13	305.9605770111084	pulse	0	t		0.16666667	0.0666666666667	270.0	256.0	0.0333333333333	0.1333333333333	0.0666666666667	361.50425696372986	
13	307.56061005592346	pulse	0	t		0.16666667	0.0666666666667	270.0	256.0	0.0333333333333	0.1333333333333	0.0666666666667	363.1042900085449	
13	307.77748012542725	response	0	b		0.16666667	0.0666666666667	270.0	256.0	0.0333333333333	0.1333333333333	0.0666666666667	363.3211600780487	
13	309.16069412231445	pulse	0	t		0.16666667	0.0666666666667	270.0	256.0	0.0333333333333	0.1333333333333	0.0666666666667	364.7043740749359	
13	310.76067090034485	pulse	0	t		0.16666667	0.0666666666667	270.0	256.0	0.0333333333333	0.1333333333333	0.0666666666667	366.3043508529663	
13	311.10459089279175	response	0	b		0.16666667	0.0666666666667	270.0	256.0	0.0333333333333	0.1333333333333	0.0666666666667	366.6482708454132	
13	312.3607189655304	pulse	0	t		0.16666667	0.0666666666667	270.0	256.0	0.0333333333333	0.1333333333333	0.0666666666667	367.90439891815186	
13	313.96067905426025	pulse	0	t		0.16666667	0.0666666666667	270.0	256.0	0.0333333333333	0.1333333333333	0.0666666666667	369.5043590068817	
13	315.5607120990753	pulse	0	t		0.16666667	0.0666666666667	270.0	256.0	0.0333333333333	0.1333333333333	0.0666666666667	371.1043920516968	
13	317.16073298454285	pulse	0	t		0.16666667	0.0666666666667	270.0	256.0	0.0333333333333	0.1333333333333	0.0666666666667	372.7044129371643	
13	318.76072812080383	pulse	0	t		0.16666667	0.0666666666667	270.0	256.0	0.0333333333333	0.1333333333333	0.0666666666667	374.3044080734253	
13	320.25177693367004	response	0	b		0.16666667	0.0666666666667	270.0	256.0	0.0333333333333	0.1333333333333	0.0666666666667	375.7954568862915	
13	320.36067605018616	pulse	0	t		0.16666667	0.0666666666667	270.0	256.0	0.0333333333333	0.1333333333333	0.0666666666667	375.9043560028076	
13	321.96071791648865	pulse	0	t		0.16666667	0.0666666666667	270.0	256.0	0.0333333333333	0.1333333333333	0.0666666666667	377.5043978691101	
14	321.997859954834	stim	0		0								377.54153990745544	24.7203950881958
14	323.5649890899658	pulse	0	t									379.1086690425873	
14	324.6568579673767	response	0	b									380.20053791999817	
14	325.1651830673218	pulse	0	t									380.70886301994324	
14	326.76544404029846	pulse	0	t									382.3091239929199	
14	327.5839800834656	response	0	b									383.12766003608704	
14	328.36578607559204	pulse	0	t									383.9094660282135	
14	329.965891122818	pulse	0	t									385.50957107543945	
14	330.1241569519043	response	0	b									385.66783690452576	
14	331.56606793403625	pulse	0	t									387.1097478866577	
14	333.15986704826355	pulse	0	t									388.703547000885	
14	333.37649607658386	response	0	b									388.9201760292053	
14	334.7600939273834	pulse	0	t									390.3037738800049	
14	336.36028599739075	pulse	0	t									391.9039659500122	
14	337.9605269432068	pulse	0	t									393.50420689582825	
14	338.63381791114807	response	0	b									394.17749786376953	
14	339.56073689460754	pulse	0	t									395.104416847229	
14	341.16102290153503	pulse	0	t									396.7047028541565	
14	342.56777000427246	response	0	b									398.1114499568939	
14	342.76104497909546	pulse	0	t									398.3047249317169	
14	344.3615400791168	pulse	0	t									399.9052200317383	
14	345.9616858959198	pulse	0	t									401.50536584854126	
