trial_nr	onset	event_type	phase	response	nr_frames	bar_width	bar_refresh_time	bar_direction	start_time	bar_blank_duration	bar_blank_interval	bg_stim_refresh_time	onset_abs	duration
0	0.1748640537261963	stim	0		0								37.137431144714355	0.8334040641784668
0	1.000133991241455	response	0	space									37.962701082229614	
1	1.008268117904663	stim	0		0								37.97083520889282	42.62528085708618
1	43.603394985198975	pulse	0	t									80.56596207618713	
1	43.633548974990845	stim	1		0								80.596116065979	0.0007660388946533203
1	43.6343150138855	stim	0		0								80.59688210487366	24.000602960586548
1	45.19833207130432	pulse	0	t									82.16089916229248	
1	46.79860591888428	pulse	0	t									83.76117300987244	
1	46.84027600288391	response	0	b									83.80284309387207	
1	48.39888000488281	pulse	0	t									85.36144709587097	
1	49.56572413444519	response	0	b									86.52829122543335	
1	49.9990770816803	pulse	0	t									86.96164417266846	
1	51.599376916885376	pulse	0	t									88.56194400787354	
1	52.78288698196411	response	0	b									89.74545407295227	
1	53.199482917785645	pulse	0	t									90.1620500087738	
1	54.799889087677	pulse	0	t									91.76245617866516	
1	56.40017604827881	pulse	0	t									93.36274313926697	
1	57.55029106140137	response	0	b									94.51285815238953	
1	58.00029897689819	pulse	0	t									94.96286606788635	
1	59.60054898262024	pulse	0	t									96.5631160736084	
1	61.20076012611389	pulse	0	t									98.16332721710205	
1	62.80107402801514	pulse	0	t									99.7636411190033	
1	62.901052951812744	response	0	b									99.8636200428009	
1	64.40134596824646	pulse	0	t									101.36391305923462	
1	65.80983114242554	response	0	b									102.7723982334137	
1	66.00147604942322	pulse	0	t									102.96404314041138	
1	67.60174608230591	pulse	0	t									104.56431317329407	
2	67.63491797447205	stim	0		0	0.16666667	0.0666666666667	270.0	24.0	0.0333333333333	0.1333333333333	0.0666666666667	104.5974850654602	23.986900091171265
2	69.19801592826843	pulse	0	t		0.16666667	0.0666666666667	270.0	24.0	0.0333333333333	0.1333333333333	0.0666666666667	106.16058301925659	
2	70.79807710647583	pulse	0	t		0.16666667	0.0666666666667	270.0	24.0	0.0333333333333	0.1333333333333	0.0666666666667	107.76064419746399	
2	72.39806699752808	pulse	0	t		0.16666667	0.0666666666667	270.0	24.0	0.0333333333333	0.1333333333333	0.0666666666667	109.36063408851624	
2	73.99811100959778	pulse	0	t		0.16666667	0.0666666666667	270.0	24.0	0.0333333333333	0.1333333333333	0.0666666666667	110.96067810058594	
2	75.59807515144348	pulse	0	t		0.16666667	0.0666666666667	270.0	24.0	0.0333333333333	0.1333333333333	0.0666666666667	112.56064224243164	
2	77.19805908203125	pulse	0	t		0.16666667	0.0666666666667	270.0	24.0	0.0333333333333	0.1333333333333	0.0666666666667	114.16062617301941	
2	78.79817414283752	pulse	0	t		0.16666667	0.0666666666667	270.0	24.0	0.0333333333333	0.1333333333333	0.0666666666667	115.76074123382568	
2	80.39819312095642	pulse	0	t		0.16666667	0.0666666666667	270.0	24.0	0.0333333333333	0.1333333333333	0.0666666666667	117.36076021194458	
2	81.99818015098572	pulse	0	t		0.16666667	0.0666666666667	270.0	24.0	0.0333333333333	0.1333333333333	0.0666666666667	118.96074724197388	
2	82.87322807312012	response	0	b		0.16666667	0.0666666666667	270.0	24.0	0.0333333333333	0.1333333333333	0.0666666666667	119.83579516410828	
2	83.59817695617676	pulse	0	t		0.16666667	0.0666666666667	270.0	24.0	0.0333333333333	0.1333333333333	0.0666666666667	120.56074404716492	
2	85.19816303253174	pulse	0	t		0.16666667	0.0666666666667	270.0	24.0	0.0333333333333	0.1333333333333	0.0666666666667	122.1607301235199	
2	85.6031219959259	response	0	b		0.16666667	0.0666666666667	270.0	24.0	0.0333333333333	0.1333333333333	0.0666666666667	122.56568908691406	
2	86.7981641292572	pulse	0	t		0.16666667	0.0666666666667	270.0	24.0	0.0333333333333	0.1333333333333	0.0666666666667	123.76073122024536	
2	88.39823198318481	response	0	b		0.16666667	0.0666666666667	270.0	24.0	0.0333333333333	0.1333333333333	0.0666666666667	125.36079907417297	
2	88.40026211738586	pulse	0	t		0.16666667	0.0666666666667	270.0	24.0	0.0333333333333	0.1333333333333	0.0666666666667	125.36282920837402	
2	89.99826407432556	pulse	0	t		0.16666667	0.0666666666667	270.0	24.0	0.0333333333333	0.1333333333333	0.0666666666667	126.96083116531372	
2	91.5982780456543	pulse	0	t		0.16666667	0.0666666666667	270.0	24.0	0.0333333333333	0.1333333333333	0.0666666666667	128.56084513664246	
3	91.62181806564331	stim	0		0	0.16666667	0.0666666666667	0.0	48.0	0.0333333333333	0.1333333333333	0.0666666666667	128.58438515663147	24.003690004348755
3	92.70725893974304	response	0	b		0.16666667	0.0666666666667	0.0	48.0	0.0333333333333	0.1333333333333	0.0666666666667	129.6698260307312	
3	93.1982159614563	pulse	0	t		0.16666667	0.0666666666667	0.0	48.0	0.0333333333333	0.1333333333333	0.0666666666667	130.16078305244446	
3	94.79840397834778	pulse	0	t		0.16666667	0.0666666666667	0.0	48.0	0.0333333333333	0.1333333333333	0.0666666666667	131.76097106933594	
3	95.53629302978516	response	0	b		0.16666667	0.0666666666667	0.0	48.0	0.0333333333333	0.1333333333333	0.0666666666667	132.49886012077332	
3	96.39834904670715	pulse	0	t		0.16666667	0.0666666666667	0.0	48.0	0.0333333333333	0.1333333333333	0.0666666666667	133.3609161376953	
3	97.99839401245117	pulse	0	t		0.16666667	0.0666666666667	0.0	48.0	0.0333333333333	0.1333333333333	0.0666666666667	134.96096110343933	
3	99.59837508201599	pulse	0	t		0.16666667	0.0666666666667	0.0	48.0	0.0333333333333	0.1333333333333	0.0666666666667	136.56094217300415	
3	100.97545099258423	response	0	b		0.16666667	0.0666666666667	0.0	48.0	0.0333333333333	0.1333333333333	0.0666666666667	137.9380180835724	
3	101.1982491016388	pulse	0	t		0.16666667	0.0666666666667	0.0	48.0	0.0333333333333	0.1333333333333	0.0666666666667	138.16081619262695	
3	102.79848599433899	pulse	0	t		0.16666667	0.0666666666667	0.0	48.0	0.0333333333333	0.1333333333333	0.0666666666667	139.76105308532715	
3	104.39849209785461	pulse	0	t		0.16666667	0.0666666666667	0.0	48.0	0.0333333333333	0.1333333333333	0.0666666666667	141.36105918884277	
3	105.0644850730896	response	0	b		0.16666667	0.0666666666667	0.0	48.0	0.0333333333333	0.1333333333333	0.0666666666667	142.02705216407776	
3	105.99852013587952	pulse	0	t		0.16666667	0.0666666666667	0.0	48.0	0.0333333333333	0.1333333333333	0.0666666666667	142.96108722686768	
3	107.23249912261963	response	0	b		0.16666667	0.0666666666667	0.0	48.0	0.0333333333333	0.1333333333333	0.0666666666667	144.1950662136078	
3	107.59835505485535	pulse	0	t		0.16666667	0.0666666666667	0.0	48.0	0.0333333333333	0.1333333333333	0.0666666666667	144.5609221458435	
3	109.1985080242157	pulse	0	t		0.16666667	0.0666666666667	0.0	48.0	0.0333333333333	0.1333333333333	0.0666666666667	146.16107511520386	
3	110.7985029220581	pulse	0	t		0.16666667	0.0666666666667	0.0	48.0	0.0333333333333	0.1333333333333	0.0666666666667	147.76107001304626	
3	112.13261604309082	response	0	b		0.16666667	0.0666666666667	0.0	48.0	0.0333333333333	0.1333333333333	0.0666666666667	149.09518313407898	
3	112.39843106269836	pulse	0	t		0.16666667	0.0666666666667	0.0	48.0	0.0333333333333	0.1333333333333	0.0666666666667	149.36099815368652	
3	113.99755001068115	pulse	0	t		0.16666667	0.0666666666667	0.0	48.0	0.0333333333333	0.1333333333333	0.0666666666667	150.9601171016693	
3	115.59751415252686	pulse	0	t		0.16666667	0.0666666666667	0.0	48.0	0.0333333333333	0.1333333333333	0.0666666666667	152.56008124351501	
4	115.62550806999207	stim	0		0	-1.0	1.0	-1.0	72.0	0.0333333333333	0.1333333333333	0.0666666666667	152.58807516098022	16.002317905426025
4	115.67562913894653	response	0	b		-1.0	1.0	-1.0	72.0	0.0333333333333	0.1333333333333	0.0666666666667	152.6381962299347	
4	117.20090699195862	pulse	0	t		-1.0	1.0	-1.0	72.0	0.0333333333333	0.1333333333333	0.0666666666667	154.16347408294678	
4	118.80116510391235	pulse	0	t		-1.0	1.0	-1.0	72.0	0.0333333333333	0.1333333333333	0.0666666666667	155.7637321949005	
4	120.4012839794159	pulse	0	t		-1.0	1.0	-1.0	72.0	0.0333333333333	0.1333333333333	0.0666666666667	157.36385107040405	
4	121.45137095451355	response	0	b		-1.0	1.0	-1.0	72.0	0.0333333333333	0.1333333333333	0.0666666666667	158.4139380455017	
4	122.0014431476593	pulse	0	t		-1.0	1.0	-1.0	72.0	0.0333333333333	0.1333333333333	0.0666666666667	158.96401023864746	
4	123.60176992416382	pulse	0	t		-1.0	1.0	-1.0	72.0	0.0333333333333	0.1333333333333	0.0666666666667	160.56433701515198	
4	125.03529596328735	response	0	b		-1.0	1.0	-1.0	72.0	0.0333333333333	0.1333333333333	0.0666666666667	161.9978630542755	
4	125.20191311836243	pulse	0	t		-1.0	1.0	-1.0	72.0	0.0333333333333	0.1333333333333	0.0666666666667	162.1644802093506	
4	126.80226397514343	pulse	0	t		-1.0	1.0	-1.0	72.0	0.0333333333333	0.1333333333333	0.0666666666667	163.7648310661316	
4	127.6440601348877	response	0	b		-1.0	1.0	-1.0	72.0	0.0333333333333	0.1333333333333	0.0666666666667	164.60662722587585	
4	128.40242505073547	pulse	0	t		-1.0	1.0	-1.0	72.0	0.0333333333333	0.1333333333333	0.0666666666667	165.36499214172363	
4	129.7943880558014	response	0	b		-1.0	1.0	-1.0	72.0	0.0333333333333	0.1333333333333	0.0666666666667	166.75695514678955	
4	130.00273299217224	pulse	0	t		-1.0	1.0	-1.0	72.0	0.0333333333333	0.1333333333333	0.0666666666667	166.9653000831604	
4	131.60297894477844	pulse	0	t		-1.0	1.0	-1.0	72.0	0.0333333333333	0.1333333333333	0.0666666666667	168.5655460357666	
5	131.6278259754181	stim	0		0	0.16666667	0.0666666666667	90.0	88.0	0.0333333333333	0.1333333333333	0.0666666666667	168.59039306640625	23.995334148406982
5	132.16131496429443	response	0	b		0.16666667	0.0666666666667	90.0	88.0	0.0333333333333	0.1333333333333	0.0666666666667	169.1238820552826	
5	133.19782900810242	pulse	0	t		0.16666667	0.0666666666667	90.0	88.0	0.0333333333333	0.1333333333333	0.0666666666667	170.16039609909058	
5	134.79777693748474	pulse	0	t		0.16666667	0.0666666666667	90.0	88.0	0.0333333333333	0.1333333333333	0.0666666666667	171.7603440284729	
5	136.39782905578613	pulse	0	t		0.16666667	0.0666666666667	90.0	88.0	0.0333333333333	0.1333333333333	0.0666666666667	173.3603961467743	
5	136.74477696418762	response	0	b		0.16666667	0.0666666666667	90.0	88.0	0.0333333333333	0.1333333333333	0.0666666666667	173.70734405517578	
5	137.99785900115967	pulse	0	t		0.16666667	0.0666666666667	90.0	88.0	0.0333333333333	0.1333333333333	0.0666666666667	174.96042609214783	
5	139.05590105056763	response	0	b		0.16666667	0.0666666666667	90.0	88.0	0.0333333333333	0.1333333333333	0.0666666666667	176.0184681415558	
5	139.59785795211792	pulse	0	t		0.16666667	0.0666666666667	90.0	88.0	0.0333333333333	0.1333333333333	0.0666666666667	176.56042504310608	
5	141.19793009757996	pulse	0	t		0.16666667	0.0666666666667	90.0	88.0	0.0333333333333	0.1333333333333	0.0666666666667	178.16049718856812	
5	142.7979221343994	pulse	0	t		0.16666667	0.0666666666667	90.0	88.0	0.0333333333333	0.1333333333333	0.0666666666667	179.76048922538757	
5	143.30689692497253	response	0	b		0.16666667	0.0666666666667	90.0	88.0	0.0333333333333	0.1333333333333	0.0666666666667	180.2694640159607	
5	144.397931098938	pulse	0	t		0.16666667	0.0666666666667	90.0	88.0	0.0333333333333	0.1333333333333	0.0666666666667	181.36049818992615	
5	145.9979419708252	pulse	0	t		0.16666667	0.0666666666667	90.0	88.0	0.0333333333333	0.1333333333333	0.0666666666667	182.96050906181335	
5	147.46897411346436	response	0	b		0.16666667	0.0666666666667	90.0	88.0	0.0333333333333	0.1333333333333	0.0666666666667	184.43154120445251	
5	147.59781908988953	pulse	0	t		0.16666667	0.0666666666667	90.0	88.0	0.0333333333333	0.1333333333333	0.0666666666667	184.56038618087769	
5	149.19794392585754	pulse	0	t		0.16666667	0.0666666666667	90.0	88.0	0.0333333333333	0.1333333333333	0.0666666666667	186.1605110168457	
5	150.79795908927917	pulse	0	t		0.16666667	0.0666666666667	90.0	88.0	0.0333333333333	0.1333333333333	0.0666666666667	187.76052618026733	
5	151.0438690185547	response	0	b		0.16666667	0.0666666666667	90.0	88.0	0.0333333333333	0.1333333333333	0.0666666666667	188.00643610954285	
5	152.39800906181335	pulse	0	t		0.16666667	0.0666666666667	90.0	88.0	0.0333333333333	0.1333333333333	0.0666666666667	189.3605761528015	
5	153.2520170211792	response	0	b		0.16666667	0.0666666666667	90.0	88.0	0.0333333333333	0.1333333333333	0.0666666666667	190.21458411216736	
5	153.99801993370056	pulse	0	t		0.16666667	0.0666666666667	90.0	88.0	0.0333333333333	0.1333333333333	0.0666666666667	190.96058702468872	
5	155.59806609153748	pulse	0	t		0.16666667	0.0666666666667	90.0	88.0	0.0333333333333	0.1333333333333	0.0666666666667	192.56063318252563	
6	155.62316012382507	stim	0		0	0.16666667	0.0666666666667	180.0	112.0	0.0333333333333	0.1333333333333	0.0666666666667	192.58572721481323	24.003495931625366
6	157.1981611251831	pulse	0	t		0.16666667	0.0666666666667	180.0	112.0	0.0333333333333	0.1333333333333	0.0666666666667	194.16072821617126	
6	158.7980980873108	pulse	0	t		0.16666667	0.0666666666667	180.0	112.0	0.0333333333333	0.1333333333333	0.0666666666667	195.76066517829895	
6	159.48409509658813	response	0	b		0.16666667	0.0666666666667	180.0	112.0	0.0333333333333	0.1333333333333	0.0666666666667	196.4466621875763	
6	160.39813899993896	pulse	0	t		0.16666667	0.0666666666667	180.0	112.0	0.0333333333333	0.1333333333333	0.0666666666667	197.36070609092712	
6	161.99815893173218	pulse	0	t		0.16666667	0.0666666666667	180.0	112.0	0.0333333333333	0.1333333333333	0.0666666666667	198.96072602272034	
6	163.19011092185974	response	0	b		0.16666667	0.0666666666667	180.0	112.0	0.0333333333333	0.1333333333333	0.0666666666667	200.1526780128479	
6	163.59810304641724	pulse	0	t		0.16666667	0.0666666666667	180.0	112.0	0.0333333333333	0.1333333333333	0.0666666666667	200.5606701374054	
6	165.1981680393219	pulse	0	t		0.16666667	0.0666666666667	180.0	112.0	0.0333333333333	0.1333333333333	0.0666666666667	202.16073513031006	
6	165.68120098114014	response	0	b		0.16666667	0.0666666666667	180.0	112.0	0.0333333333333	0.1333333333333	0.0666666666667	202.6437680721283	
6	166.79819202423096	pulse	0	t		0.16666667	0.0666666666667	180.0	112.0	0.0333333333333	0.1333333333333	0.0666666666667	203.76075911521912	
6	168.39828515052795	pulse	0	t		0.16666667	0.0666666666667	180.0	112.0	0.0333333333333	0.1333333333333	0.0666666666667	205.3608522415161	
6	169.9722650051117	response	0	b		0.16666667	0.0666666666667	180.0	112.0	0.0333333333333	0.1333333333333	0.0666666666667	206.93483209609985	
6	169.9980981349945	pulse	0	t		0.16666667	0.0666666666667	180.0	112.0	0.0333333333333	0.1333333333333	0.0666666666667	206.96066522598267	
6	171.59836602210999	pulse	0	t		0.16666667	0.0666666666667	180.0	112.0	0.0333333333333	0.1333333333333	0.0666666666667	208.56093311309814	
6	172.82937812805176	response	0	b		0.16666667	0.0666666666667	180.0	112.0	0.0333333333333	0.1333333333333	0.0666666666667	209.79194521903992	
6	173.19837307929993	pulse	0	t		0.16666667	0.0666666666667	180.0	112.0	0.0333333333333	0.1333333333333	0.0666666666667	210.1609401702881	
6	174.79838299751282	pulse	0	t		0.16666667	0.0666666666667	180.0	112.0	0.0333333333333	0.1333333333333	0.0666666666667	211.76095008850098	
6	175.43539309501648	response	0	b		0.16666667	0.0666666666667	180.0	112.0	0.0333333333333	0.1333333333333	0.0666666666667	212.39796018600464	
6	176.39836311340332	pulse	0	t		0.16666667	0.0666666666667	180.0	112.0	0.0333333333333	0.1333333333333	0.0666666666667	213.36093020439148	
6	177.9984359741211	pulse	0	t		0.16666667	0.0666666666667	180.0	112.0	0.0333333333333	0.1333333333333	0.0666666666667	214.96100306510925	
6	178.89739799499512	response	0	b		0.16666667	0.0666666666667	180.0	112.0	0.0333333333333	0.1333333333333	0.0666666666667	215.85996508598328	
6	179.5984389781952	pulse	0	t		0.16666667	0.0666666666667	180.0	112.0	0.0333333333333	0.1333333333333	0.0666666666667	216.56100606918335	
7	179.62665605545044	stim	0		0	-1.0	1.0	-1.0	136.0	0.0333333333333	0.1333333333333	0.0666666666667	216.5892231464386	16.002363920211792
7	181.20203804969788	pulse	0	t		-1.0	1.0	-1.0	136.0	0.0333333333333	0.1333333333333	0.0666666666667	218.16460514068604	
7	182.45225501060486	response	0	b		-1.0	1.0	-1.0	136.0	0.0333333333333	0.1333333333333	0.0666666666667	219.41482210159302	
7	182.80228805541992	pulse	0	t		-1.0	1.0	-1.0	136.0	0.0333333333333	0.1333333333333	0.0666666666667	219.76485514640808	
7	184.4024760723114	pulse	0	t		-1.0	1.0	-1.0	136.0	0.0333333333333	0.1333333333333	0.0666666666667	221.36504316329956	
7	185.46937012672424	response	0	b		-1.0	1.0	-1.0	136.0	0.0333333333333	0.1333333333333	0.0666666666667	222.4319372177124	
7	186.0027859210968	pulse	0	t		-1.0	1.0	-1.0	136.0	0.0333333333333	0.1333333333333	0.0666666666667	222.96535301208496	
7	187.6030011177063	pulse	0	t		-1.0	1.0	-1.0	136.0	0.0333333333333	0.1333333333333	0.0666666666667	224.56556820869446	
7	189.20323300361633	pulse	0	t		-1.0	1.0	-1.0	136.0	0.0333333333333	0.1333333333333	0.0666666666667	226.1658000946045	
7	190.20334601402283	response	0	b		-1.0	1.0	-1.0	136.0	0.0333333333333	0.1333333333333	0.0666666666667	227.165913105011	
7	190.80344700813293	pulse	0	t		-1.0	1.0	-1.0	136.0	0.0333333333333	0.1333333333333	0.0666666666667	227.7660140991211	
7	192.40372014045715	pulse	0	t		-1.0	1.0	-1.0	136.0	0.0333333333333	0.1333333333333	0.0666666666667	229.3662872314453	
7	194.00398302078247	pulse	0	t		-1.0	1.0	-1.0	136.0	0.0333333333333	0.1333333333333	0.0666666666667	230.96655011177063	
7	195.60417294502258	pulse	0	t		-1.0	1.0	-1.0	136.0	0.0333333333333	0.1333333333333	0.0666666666667	232.56674003601074	
8	195.62901997566223	stim	0		0	-1.0	1.0	-1.0	152.0	0.0333333333333	0.1333333333333	0.0666666666667	232.5915870666504	16.002360105514526
8	195.73760199546814	response	0	b		-1.0	1.0	-1.0	152.0	0.0333333333333	0.1333333333333	0.0666666666667	232.7001690864563	
8	197.2044060230255	pulse	0	t		-1.0	1.0	-1.0	152.0	0.0333333333333	0.1333333333333	0.0666666666667	234.16697311401367	
8	198.80460214614868	pulse	0	t		-1.0	1.0	-1.0	152.0	0.0333333333333	0.1333333333333	0.0666666666667	235.76716923713684	
8	200.2632031440735	response	0	b		-1.0	1.0	-1.0	152.0	0.0333333333333	0.1333333333333	0.0666666666667	237.22577023506165	
8	200.4049460887909	pulse	0	t		-1.0	1.0	-1.0	152.0	0.0333333333333	0.1333333333333	0.0666666666667	237.36751317977905	
8	201.99860906600952	pulse	0	t		-1.0	1.0	-1.0	152.0	0.0333333333333	0.1333333333333	0.0666666666667	238.96117615699768	
8	203.58034706115723	response	0	b		-1.0	1.0	-1.0	152.0	0.0333333333333	0.1333333333333	0.0666666666667	240.54291415214539	
8	203.59886813163757	pulse	0	t		-1.0	1.0	-1.0	152.0	0.0333333333333	0.1333333333333	0.0666666666667	240.56143522262573	
8	205.1990261077881	pulse	0	t		-1.0	1.0	-1.0	152.0	0.0333333333333	0.1333333333333	0.0666666666667	242.16159319877625	
8	206.79936814308167	pulse	0	t		-1.0	1.0	-1.0	152.0	0.0333333333333	0.1333333333333	0.0666666666667	243.76193523406982	
8	208.39767813682556	pulse	0	t		-1.0	1.0	-1.0	152.0	0.0333333333333	0.1333333333333	0.0666666666667	245.36024522781372	
8	209.58952808380127	response	0	b		-1.0	1.0	-1.0	152.0	0.0333333333333	0.1333333333333	0.0666666666667	246.55209517478943	
8	209.99789214134216	pulse	0	t		-1.0	1.0	-1.0	152.0	0.0333333333333	0.1333333333333	0.0666666666667	246.96045923233032	
8	211.59816002845764	pulse	0	t		-1.0	1.0	-1.0	152.0	0.0333333333333	0.1333333333333	0.0666666666667	248.5607271194458	
9	211.63138008117676	stim	0		0	0.16666667	0.0666666666667	180.0	168.0	0.0333333333333	0.1333333333333	0.0666666666667	248.59394717216492	24.003597021102905
9	211.8757770061493	response	0	b		0.16666667	0.0666666666667	180.0	168.0	0.0333333333333	0.1333333333333	0.0666666666667	248.83834409713745	
9	213.19777703285217	pulse	0	t		0.16666667	0.0666666666667	180.0	168.0	0.0333333333333	0.1333333333333	0.0666666666667	250.16034412384033	
9	214.7977979183197	pulse	0	t		0.16666667	0.0666666666667	180.0	168.0	0.0333333333333	0.1333333333333	0.0666666666667	251.76036500930786	
9	215.18076515197754	response	0	b		0.16666667	0.0666666666667	180.0	168.0	0.0333333333333	0.1333333333333	0.0666666666667	252.1433322429657	
9	216.397794008255	pulse	0	t		0.16666667	0.0666666666667	180.0	168.0	0.0333333333333	0.1333333333333	0.0666666666667	253.36036109924316	
9	217.85081315040588	response	0	b		0.16666667	0.0666666666667	180.0	168.0	0.0333333333333	0.1333333333333	0.0666666666667	254.81338024139404	
9	217.99772691726685	pulse	0	t		0.16666667	0.0666666666667	180.0	168.0	0.0333333333333	0.1333333333333	0.0666666666667	254.960294008255	
9	219.59787511825562	pulse	0	t		0.16666667	0.0666666666667	180.0	168.0	0.0333333333333	0.1333333333333	0.0666666666667	256.5604422092438	
9	221.19787192344666	pulse	0	t		0.16666667	0.0666666666667	180.0	168.0	0.0333333333333	0.1333333333333	0.0666666666667	258.1604390144348	
9	222.79787707328796	pulse	0	t		0.16666667	0.0666666666667	180.0	168.0	0.0333333333333	0.1333333333333	0.0666666666667	259.7604441642761	
9	224.39793300628662	pulse	0	t		0.16666667	0.0666666666667	180.0	168.0	0.0333333333333	0.1333333333333	0.0666666666667	261.3605000972748	
9	225.99787712097168	pulse	0	t		0.16666667	0.0666666666667	180.0	168.0	0.0333333333333	0.1333333333333	0.0666666666667	262.96044421195984	
9	227.59794306755066	pulse	0	t		0.16666667	0.0666666666667	180.0	168.0	0.0333333333333	0.1333333333333	0.0666666666667	264.5605101585388	
9	229.19797801971436	pulse	0	t		0.16666667	0.0666666666667	180.0	168.0	0.0333333333333	0.1333333333333	0.0666666666667	266.1605451107025	
9	230.7979941368103	pulse	0	t		0.16666667	0.0666666666667	180.0	168.0	0.0333333333333	0.1333333333333	0.0666666666667	267.76056122779846	
9	231.42616295814514	response	0	b		0.16666667	0.0666666666667	180.0	168.0	0.0333333333333	0.1333333333333	0.0666666666667	268.3887300491333	
9	232.39803409576416	pulse	0	t		0.16666667	0.0666666666667	180.0	168.0	0.0333333333333	0.1333333333333	0.0666666666667	269.3606011867523	
9	233.63097596168518	response	0	b		0.16666667	0.0666666666667	180.0	168.0	0.0333333333333	0.1333333333333	0.0666666666667	270.59354305267334	
9	233.99796509742737	pulse	0	t		0.16666667	0.0666666666667	180.0	168.0	0.0333333333333	0.1333333333333	0.0666666666667	270.9605321884155	
9	235.5980200767517	pulse	0	t		0.16666667	0.0666666666667	180.0	168.0	0.0333333333333	0.1333333333333	0.0666666666667	272.56058716773987	
10	235.63497710227966	stim	0		0	0.16666667	0.0666666666667	90.0	192.0	0.0333333333333	0.1333333333333	0.0666666666667	272.5975441932678	23.986970901489258
10	236.56040000915527	response	0	b		0.16666667	0.0666666666667	90.0	192.0	0.0333333333333	0.1333333333333	0.0666666666667	273.52296710014343	
10	237.19805598258972	pulse	0	t		0.16666667	0.0666666666667	90.0	192.0	0.0333333333333	0.1333333333333	0.0666666666667	274.1606230735779	
10	238.45207595825195	response	0	b		0.16666667	0.0666666666667	90.0	192.0	0.0333333333333	0.1333333333333	0.0666666666667	275.4146430492401	
10	238.7980179786682	pulse	0	t		0.16666667	0.0666666666667	90.0	192.0	0.0333333333333	0.1333333333333	0.0666666666667	275.7605850696564	
10	240.39811611175537	pulse	0	t		0.16666667	0.0666666666667	90.0	192.0	0.0333333333333	0.1333333333333	0.0666666666667	277.36068320274353	
10	241.99816298484802	pulse	0	t		0.16666667	0.0666666666667	90.0	192.0	0.0333333333333	0.1333333333333	0.0666666666667	278.9607300758362	
10	243.14311003684998	response	0	b		0.16666667	0.0666666666667	90.0	192.0	0.0333333333333	0.1333333333333	0.0666666666667	280.10567712783813	
10	243.59809803962708	pulse	0	t		0.16666667	0.0666666666667	90.0	192.0	0.0333333333333	0.1333333333333	0.0666666666667	280.56066513061523	
10	245.19815301895142	pulse	0	t		0.16666667	0.0666666666667	90.0	192.0	0.0333333333333	0.1333333333333	0.0666666666667	282.1607201099396	
10	245.21099710464478	response	0	b		0.16666667	0.0666666666667	90.0	192.0	0.0333333333333	0.1333333333333	0.0666666666667	282.17356419563293	
10	246.79811596870422	pulse	0	t		0.16666667	0.0666666666667	90.0	192.0	0.0333333333333	0.1333333333333	0.0666666666667	283.7606830596924	
10	248.04314494132996	response	0	b		0.16666667	0.0666666666667	90.0	192.0	0.0333333333333	0.1333333333333	0.0666666666667	285.0057120323181	
10	248.3981490135193	pulse	0	t		0.16666667	0.0666666666667	90.0	192.0	0.0333333333333	0.1333333333333	0.0666666666667	285.36071610450745	
10	249.99822306632996	pulse	0	t		0.16666667	0.0666666666667	90.0	192.0	0.0333333333333	0.1333333333333	0.0666666666667	286.9607901573181	
10	251.14225101470947	response	0	b		0.16666667	0.0666666666667	90.0	192.0	0.0333333333333	0.1333333333333	0.0666666666667	288.10481810569763	
10	251.59829998016357	pulse	0	t		0.16666667	0.0666666666667	90.0	192.0	0.0333333333333	0.1333333333333	0.0666666666667	288.56086707115173	
10	253.19829607009888	pulse	0	t		0.16666667	0.0666666666667	90.0	192.0	0.0333333333333	0.1333333333333	0.0666666666667	290.16086316108704	
10	254.79831194877625	pulse	0	t		0.16666667	0.0666666666667	90.0	192.0	0.0333333333333	0.1333333333333	0.0666666666667	291.7608790397644	
10	256.3983590602875	pulse	0	t		0.16666667	0.0666666666667	90.0	192.0	0.0333333333333	0.1333333333333	0.0666666666667	293.36092615127563	
10	257.99830508232117	pulse	0	t		0.16666667	0.0666666666667	90.0	192.0	0.0333333333333	0.1333333333333	0.0666666666667	294.9608721733093	
10	259.5983691215515	pulse	0	t		0.16666667	0.0666666666667	90.0	192.0	0.0333333333333	0.1333333333333	0.0666666666667	296.5609362125397	
11	259.6219480037689	stim	0		0	-1.0	1.0	-1.0	216.0	0.0333333333333	0.1333333333333	0.0666666666667	296.5845150947571	16.01064395904541
11	261.19910407066345	pulse	0	t		-1.0	1.0	-1.0	216.0	0.0333333333333	0.1333333333333	0.0666666666667	298.1616711616516	
11	261.8224370479584	response	0	b		-1.0	1.0	-1.0	216.0	0.0333333333333	0.1333333333333	0.0666666666667	298.78500413894653	
11	262.79947113990784	pulse	0	t		-1.0	1.0	-1.0	216.0	0.0333333333333	0.1333333333333	0.0666666666667	299.762038230896	
11	264.19767212867737	response	0	b		-1.0	1.0	-1.0	216.0	0.0333333333333	0.1333333333333	0.0666666666667	301.1602392196655	
11	264.39950609207153	pulse	0	t		-1.0	1.0	-1.0	216.0	0.0333333333333	0.1333333333333	0.0666666666667	301.3620731830597	
11	265.9997639656067	pulse	0	t		-1.0	1.0	-1.0	216.0	0.0333333333333	0.1333333333333	0.0666666666667	302.96233105659485	
11	266.64807415008545	response	0	b		-1.0	1.0	-1.0	216.0	0.0333333333333	0.1333333333333	0.0666666666667	303.6106412410736	
11	267.6000919342041	pulse	0	t		-1.0	1.0	-1.0	216.0	0.0333333333333	0.1333333333333	0.0666666666667	304.56265902519226	
11	269.1985111236572	pulse	0	t		-1.0	1.0	-1.0	216.0	0.0333333333333	0.1333333333333	0.0666666666667	306.1610782146454	
11	269.48364305496216	response	0	b		-1.0	1.0	-1.0	216.0	0.0333333333333	0.1333333333333	0.0666666666667	306.4462101459503	
11	270.798712015152	pulse	0	t		-1.0	1.0	-1.0	216.0	0.0333333333333	0.1333333333333	0.0666666666667	307.76127910614014	
11	272.39889907836914	pulse	0	t		-1.0	1.0	-1.0	216.0	0.0333333333333	0.1333333333333	0.0666666666667	309.3614661693573	
11	273.93256306648254	response	0	b		-1.0	1.0	-1.0	216.0	0.0333333333333	0.1333333333333	0.0666666666667	310.8951301574707	
11	273.99925994873047	pulse	0	t		-1.0	1.0	-1.0	216.0	0.0333333333333	0.1333333333333	0.0666666666667	310.9618270397186	
11	275.5993630886078	pulse	0	t		-1.0	1.0	-1.0	216.0	0.0333333333333	0.1333333333333	0.0666666666667	312.56193017959595	
12	275.63259196281433	stim	0		0	0.16666667	0.0666666666667	0.0	232.0	0.0333333333333	0.1333333333333	0.0666666666667	312.5951590538025	24.003626108169556
12	277.1985709667206	pulse	0	t		0.16666667	0.0666666666667	0.0	232.0	0.0333333333333	0.1333333333333	0.0666666666667	314.16113805770874	
12	278.79858803749084	pulse	0	t		0.16666667	0.0666666666667	0.0	232.0	0.0333333333333	0.1333333333333	0.0666666666667	315.761155128479	
12	279.0775101184845	response	0	b		0.16666667	0.0666666666667	0.0	232.0	0.0333333333333	0.1333333333333	0.0666666666667	316.04007720947266	
12	280.3985960483551	pulse	0	t		0.16666667	0.0666666666667	0.0	232.0	0.0333333333333	0.1333333333333	0.0666666666667	317.36116313934326	
12	281.9986310005188	pulse	0	t		0.16666667	0.0666666666667	0.0	232.0	0.0333333333333	0.1333333333333	0.0666666666667	318.96119809150696	
12	283.33862113952637	response	0	b		0.16666667	0.0666666666667	0.0	232.0	0.0333333333333	0.1333333333333	0.0666666666667	320.3011882305145	
12	283.5985019207001	pulse	0	t		0.16666667	0.0666666666667	0.0	232.0	0.0333333333333	0.1333333333333	0.0666666666667	320.56106901168823	
12	285.1985650062561	pulse	0	t		0.16666667	0.0666666666667	0.0	232.0	0.0333333333333	0.1333333333333	0.0666666666667	322.16113209724426	
12	286.79870104789734	pulse	0	t		0.16666667	0.0666666666667	0.0	232.0	0.0333333333333	0.1333333333333	0.0666666666667	323.7612681388855	
12	288.3987760543823	pulse	0	t		0.16666667	0.0666666666667	0.0	232.0	0.0333333333333	0.1333333333333	0.0666666666667	325.3613431453705	
12	289.7457230091095	response	0	b		0.16666667	0.0666666666667	0.0	232.0	0.0333333333333	0.1333333333333	0.0666666666667	326.70829010009766	
12	289.9985511302948	pulse	0	t		0.16666667	0.0666666666667	0.0	232.0	0.0333333333333	0.1333333333333	0.0666666666667	326.96111822128296	
12	291.59872007369995	pulse	0	t		0.16666667	0.0666666666667	0.0	232.0	0.0333333333333	0.1333333333333	0.0666666666667	328.5612871646881	
12	293.19876503944397	pulse	0	t		0.16666667	0.0666666666667	0.0	232.0	0.0333333333333	0.1333333333333	0.0666666666667	330.16133213043213	
12	294.79879903793335	pulse	0	t		0.16666667	0.0666666666667	0.0	232.0	0.0333333333333	0.1333333333333	0.0666666666667	331.7613661289215	
12	295.97180104255676	response	0	b		0.16666667	0.0666666666667	0.0	232.0	0.0333333333333	0.1333333333333	0.0666666666667	332.9343681335449	
12	296.3987431526184	pulse	0	t		0.16666667	0.0666666666667	0.0	232.0	0.0333333333333	0.1333333333333	0.0666666666667	333.36131024360657	
12	297.9988341331482	pulse	0	t		0.16666667	0.0666666666667	0.0	232.0	0.0333333333333	0.1333333333333	0.0666666666667	334.96140122413635	
12	299.22807097435	response	0	b		0.16666667	0.0666666666667	0.0	232.0	0.0333333333333	0.1333333333333	0.0666666666667	336.19063806533813	
12	299.598788022995	pulse	0	t		0.16666667	0.0666666666667	0.0	232.0	0.0333333333333	0.1333333333333	0.0666666666667	336.56135511398315	
13	299.6362180709839	stim	0		0	0.16666667	0.0666666666667	270.0	256.0	0.0333333333333	0.1333333333333	0.0666666666667	336.59878516197205	23.986950874328613
13	301.1979601383209	pulse	0	t		0.16666667	0.0666666666667	270.0	256.0	0.0333333333333	0.1333333333333	0.0666666666667	338.1605272293091	
13	302.2221300601959	response	0	b		0.16666667	0.0666666666667	270.0	256.0	0.0333333333333	0.1333333333333	0.0666666666667	339.1846971511841	
13	302.7979850769043	pulse	0	t		0.16666667	0.0666666666667	270.0	256.0	0.0333333333333	0.1333333333333	0.0666666666667	339.76055216789246	
13	304.39792799949646	pulse	0	t		0.16666667	0.0666666666667	270.0	256.0	0.0333333333333	0.1333333333333	0.0666666666667	341.3604950904846	
13	304.67293095588684	response	0	b		0.16666667	0.0666666666667	270.0	256.0	0.0333333333333	0.1333333333333	0.0666666666667	341.635498046875	
13	305.9979679584503	pulse	0	t		0.16666667	0.0666666666667	270.0	256.0	0.0333333333333	0.1333333333333	0.0666666666667	342.9605350494385	
13	307.59807896614075	pulse	0	t		0.16666667	0.0666666666667	270.0	256.0	0.0333333333333	0.1333333333333	0.0666666666667	344.5606460571289	
13	309.19800209999084	pulse	0	t		0.16666667	0.0666666666667	270.0	256.0	0.0333333333333	0.1333333333333	0.0666666666667	346.160569190979	
13	310.7981331348419	pulse	0	t		0.16666667	0.0666666666667	270.0	256.0	0.0333333333333	0.1333333333333	0.0666666666667	347.7607002258301	
13	310.93391704559326	response	0	b		0.16666667	0.0666666666667	270.0	256.0	0.0333333333333	0.1333333333333	0.0666666666667	347.8964841365814	
13	312.39813899993896	pulse	0	t		0.16666667	0.0666666666667	270.0	256.0	0.0333333333333	0.1333333333333	0.0666666666667	349.3607060909271	
13	313.8161039352417	response	0	b		0.16666667	0.0666666666667	270.0	256.0	0.0333333333333	0.1333333333333	0.0666666666667	350.77867102622986	
13	313.99810099601746	pulse	0	t		0.16666667	0.0666666666667	270.0	256.0	0.0333333333333	0.1333333333333	0.0666666666667	350.9606680870056	
13	315.59813809394836	pulse	0	t		0.16666667	0.0666666666667	270.0	256.0	0.0333333333333	0.1333333333333	0.0666666666667	352.5607051849365	
13	316.41708993911743	response	0	b		0.16666667	0.0666666666667	270.0	256.0	0.0333333333333	0.1333333333333	0.0666666666667	353.3796570301056	
13	317.19797801971436	pulse	0	t		0.16666667	0.0666666666667	270.0	256.0	0.0333333333333	0.1333333333333	0.0666666666667	354.1605451107025	
13	318.79808807373047	pulse	0	t		0.16666667	0.0666666666667	270.0	256.0	0.0333333333333	0.1333333333333	0.0666666666667	355.7606551647186	
13	320.39806604385376	pulse	0	t		0.16666667	0.0666666666667	270.0	256.0	0.0333333333333	0.1333333333333	0.0666666666667	357.3606331348419	
13	321.6500310897827	response	0	b		0.16666667	0.0666666666667	270.0	256.0	0.0333333333333	0.1333333333333	0.0666666666667	358.6125981807709	
13	321.9980499744415	pulse	0	t		0.16666667	0.0666666666667	270.0	256.0	0.0333333333333	0.1333333333333	0.0666666666667	358.9606170654297	
13	323.59816098213196	pulse	0	t		0.16666667	0.0666666666667	270.0	256.0	0.0333333333333	0.1333333333333	0.0666666666667	360.5607280731201	
14	323.6231689453125	stim	0		0								360.58573603630066	25.33712410926819
14	325.1984541416168	pulse	0	t									362.161021232605	
14	326.5653841495514	response	0	b									363.52795124053955	
14	326.7987549304962	pulse	0	t									363.7613220214844	
14	328.399050951004	pulse	0	t									365.3616180419922	
14	329.09914898872375	response	0	b									366.0617160797119	
14	329.9993929862976	pulse	0	t									366.96196007728577	
14	331.5993859767914	pulse	0	t									368.56195306777954	
14	333.19968605041504	pulse	0	t									370.1622531414032	
14	333.4247739315033	response	0	b									370.38734102249146	
14	334.79998111724854	pulse	0	t									371.7625482082367	
14	336.4001989364624	pulse	0	t									373.36276602745056	
14	336.91029596328735	response	0	b									373.8728630542755	
14	338.00046396255493	pulse	0	t									374.9630310535431	
14	339.60070991516113	pulse	0	t									376.5632770061493	
14	341.200914144516	pulse	0	t									378.16348123550415	
14	342.80120491981506	pulse	0	t									379.7637720108032	
14	344.1096770763397	response	0	b									381.0722441673279	
14	344.4013350009918	pulse	0	t									381.36390209198	
14	346.00169801712036	pulse	0	t									382.9642651081085	
14	347.6018660068512	pulse	0	t									384.56443309783936	
