trial_nr	onset	event_type	phase	response	nr_frames	bar_width	bar_refresh_time	bar_direction	start_time	bar_blank_duration	bar_blank_interval	bg_stim_refresh_time	onset_abs	duration
0	0.15801191329956055	stim	0		0								840.8414158821106	11.550350904464722
0	11.700255870819092	response	0	space									852.3836598396301	
1	11.708362817764282	stim	0		0								852.3917667865753	1103.5611600875854
1	1115.2514579296112	pulse	0	t									1955.9348618984222	
1	1115.2695229053497	stim	1		0								1955.9529268741608	24.00832986831665
1	1116.846664905548	pulse	1	t									1957.5300688743591	
1	1118.4466149806976	pulse	1	t									1959.1300189495087	
1	1120.0465528964996	pulse	1	t									1960.7299568653107	
1	1121.646654844284	pulse	1	t									1962.330058813095	
1	1123.2465620040894	pulse	1	t									1963.9299659729004	
1	1124.8464939594269	pulse	1	t									1965.529897928238	
1	1126.4465239048004	pulse	1	t									1967.1299278736115	
1	1128.046476840973	pulse	1	t									1968.729880809784	
1	1129.6464657783508	pulse	1	t									1970.3298697471619	
1	1131.2465629577637	pulse	1	t									1971.9299669265747	
1	1132.8465309143066	pulse	1	t									1973.5299348831177	
1	1134.446522951126	pulse	1	t									1975.1299269199371	
1	1136.046511888504	pulse	1	t									1976.729915857315	
1	1137.6465117931366	pulse	1	t									1978.3299157619476	
1	1139.2465329170227	pulse	1	t									1979.9299368858337	
2	1139.2778527736664	stim	0		0	0.16666667	0.0666666666667	270.0	24.0	0.0333333333333	0.1333333333333	0.0666666666667	1979.9612567424774	23.991504192352295
2	1140.8455288410187	pulse	0	t		0.16666667	0.0666666666667	270.0	24.0	0.0333333333333	0.1333333333333	0.0666666666667	1981.5289328098297	
2	1142.4454629421234	pulse	0	t		0.16666667	0.0666666666667	270.0	24.0	0.0333333333333	0.1333333333333	0.0666666666667	1983.1288669109344	
2	1142.7173278331757	response	0	b		0.16666667	0.0666666666667	270.0	24.0	0.0333333333333	0.1333333333333	0.0666666666667	1983.4007318019867	
2	1144.0453159809113	pulse	0	t		0.16666667	0.0666666666667	270.0	24.0	0.0333333333333	0.1333333333333	0.0666666666667	1984.7287199497223	
2	1145.6451938152313	pulse	0	t		0.16666667	0.0666666666667	270.0	24.0	0.0333333333333	0.1333333333333	0.0666666666667	1986.3285977840424	
2	1147.2451128959656	pulse	0	t		0.16666667	0.0666666666667	270.0	24.0	0.0333333333333	0.1333333333333	0.0666666666667	1987.9285168647766	
2	1147.7590098381042	response	0	b		0.16666667	0.0666666666667	270.0	24.0	0.0333333333333	0.1333333333333	0.0666666666667	1988.4424138069153	
2	1148.8450059890747	pulse	0	t		0.16666667	0.0666666666667	270.0	24.0	0.0333333333333	0.1333333333333	0.0666666666667	1989.5284099578857	
2	1150.4459669589996	pulse	0	t		0.16666667	0.0666666666667	270.0	24.0	0.0333333333333	0.1333333333333	0.0666666666667	1991.1293709278107	
2	1152.045846939087	pulse	0	t		0.16666667	0.0666666666667	270.0	24.0	0.0333333333333	0.1333333333333	0.0666666666667	1992.729250907898	
2	1152.4078199863434	response	0	b		0.16666667	0.0666666666667	270.0	24.0	0.0333333333333	0.1333333333333	0.0666666666667	1993.0912239551544	
2	1153.645686864853	pulse	0	t		0.16666667	0.0666666666667	270.0	24.0	0.0333333333333	0.1333333333333	0.0666666666667	1994.329090833664	
2	1155.245761871338	pulse	0	t		0.16666667	0.0666666666667	270.0	24.0	0.0333333333333	0.1333333333333	0.0666666666667	1995.929165840149	
2	1156.1887578964233	response	0	b		0.16666667	0.0666666666667	270.0	24.0	0.0333333333333	0.1333333333333	0.0666666666667	1996.8721618652344	
2	1156.8456377983093	pulse	0	t		0.16666667	0.0666666666667	270.0	24.0	0.0333333333333	0.1333333333333	0.0666666666667	1997.5290417671204	
2	1158.445566892624	pulse	0	t		0.16666667	0.0666666666667	270.0	24.0	0.0333333333333	0.1333333333333	0.0666666666667	1999.128970861435	
2	1160.045420885086	pulse	0	t		0.16666667	0.0666666666667	270.0	24.0	0.0333333333333	0.1333333333333	0.0666666666667	2000.728824853897	
2	1160.5473568439484	response	0	b		0.16666667	0.0666666666667	270.0	24.0	0.0333333333333	0.1333333333333	0.0666666666667	2001.2307608127594	
2	1161.6452929973602	pulse	0	t		0.16666667	0.0666666666667	270.0	24.0	0.0333333333333	0.1333333333333	0.0666666666667	2002.3286969661713	
2	1163.1192100048065	response	0	b		0.16666667	0.0666666666667	270.0	24.0	0.0333333333333	0.1333333333333	0.0666666666667	2003.8026139736176	
2	1163.2450988292694	pulse	0	t		0.16666667	0.0666666666667	270.0	24.0	0.0333333333333	0.1333333333333	0.0666666666667	2003.9285027980804	
3	1163.2693569660187	stim	0		0	0.16666667	0.0666666666667	0.0	48.0	0.0333333333333	0.1333333333333	0.0666666666667	2003.9527609348297	23.99990487098694
3	1164.845048904419	pulse	0	t		0.16666667	0.0666666666667	0.0	48.0	0.0333333333333	0.1333333333333	0.0666666666667	2005.52845287323	
3	1166.4459748268127	pulse	0	t		0.16666667	0.0666666666667	0.0	48.0	0.0333333333333	0.1333333333333	0.0666666666667	2007.1293787956238	
3	1168.0458409786224	pulse	0	t		0.16666667	0.0666666666667	0.0	48.0	0.0333333333333	0.1333333333333	0.0666666666667	2008.7292449474335	
3	1169.6457448005676	pulse	0	t		0.16666667	0.0666666666667	0.0	48.0	0.0333333333333	0.1333333333333	0.0666666666667	2010.3291487693787	
3	1170.4806687831879	response	0	b		0.16666667	0.0666666666667	0.0	48.0	0.0333333333333	0.1333333333333	0.0666666666667	2011.164072751999	
3	1171.245656967163	pulse	0	t		0.16666667	0.0666666666667	0.0	48.0	0.0333333333333	0.1333333333333	0.0666666666667	2011.9290609359741	
3	1172.845619916916	pulse	0	t		0.16666667	0.0666666666667	0.0	48.0	0.0333333333333	0.1333333333333	0.0666666666667	2013.529023885727	
3	1174.4454188346863	pulse	0	t		0.16666667	0.0666666666667	0.0	48.0	0.0333333333333	0.1333333333333	0.0666666666667	2015.1288228034973	
3	1176.045373916626	pulse	0	t		0.16666667	0.0666666666667	0.0	48.0	0.0333333333333	0.1333333333333	0.0666666666667	2016.728777885437	
3	1176.8833379745483	response	0	b		0.16666667	0.0666666666667	0.0	48.0	0.0333333333333	0.1333333333333	0.0666666666667	2017.5667419433594	
3	1177.6453058719635	pulse	0	t		0.16666667	0.0666666666667	0.0	48.0	0.0333333333333	0.1333333333333	0.0666666666667	2018.3287098407745	
3	1179.2452127933502	pulse	0	t		0.16666667	0.0666666666667	0.0	48.0	0.0333333333333	0.1333333333333	0.0666666666667	2019.9286167621613	
3	1180.8451399803162	pulse	0	t		0.16666667	0.0666666666667	0.0	48.0	0.0333333333333	0.1333333333333	0.0666666666667	2021.5285439491272	
3	1181.09596991539	response	0	b		0.16666667	0.0666666666667	0.0	48.0	0.0333333333333	0.1333333333333	0.0666666666667	2021.779373884201	
3	1182.4459819793701	pulse	0	t		0.16666667	0.0666666666667	0.0	48.0	0.0333333333333	0.1333333333333	0.0666666666667	2023.1293859481812	
3	1184.0458498001099	pulse	0	t		0.16666667	0.0666666666667	0.0	48.0	0.0333333333333	0.1333333333333	0.0666666666667	2024.729253768921	
3	1184.3938128948212	response	0	b		0.16666667	0.0666666666667	0.0	48.0	0.0333333333333	0.1333333333333	0.0666666666667	2025.0772168636322	
3	1185.6458098888397	pulse	0	t		0.16666667	0.0666666666667	0.0	48.0	0.0333333333333	0.1333333333333	0.0666666666667	2026.3292138576508	
3	1187.2457208633423	pulse	0	t		0.16666667	0.0666666666667	0.0	48.0	0.0333333333333	0.1333333333333	0.0666666666667	2027.9291248321533	
4	1187.2692618370056	stim	0		0	-1.0	1.0	-1.0	72.0	0.0333333333333	0.1333333333333	0.0666666666667	2027.9526658058167	16.008327960968018
4	1188.1944108009338	response	0	b		-1.0	1.0	-1.0	72.0	0.0333333333333	0.1333333333333	0.0666666666667	2028.8778147697449	
4	1188.8460729122162	pulse	0	t		-1.0	1.0	-1.0	72.0	0.0333333333333	0.1333333333333	0.0666666666667	2029.5294768810272	
4	1190.4460799694061	pulse	0	t		-1.0	1.0	-1.0	72.0	0.0333333333333	0.1333333333333	0.0666666666667	2031.1294839382172	
4	1190.8776087760925	response	0	b		-1.0	1.0	-1.0	72.0	0.0333333333333	0.1333333333333	0.0666666666667	2031.5610127449036	
4	1192.0460438728333	pulse	0	t		-1.0	1.0	-1.0	72.0	0.0333333333333	0.1333333333333	0.0666666666667	2032.7294478416443	
4	1193.6461408138275	pulse	0	t		-1.0	1.0	-1.0	72.0	0.0333333333333	0.1333333333333	0.0666666666667	2034.3295447826385	
4	1194.444343805313	response	0	b		-1.0	1.0	-1.0	72.0	0.0333333333333	0.1333333333333	0.0666666666667	2035.1277477741241	
4	1195.2461857795715	pulse	0	t		-1.0	1.0	-1.0	72.0	0.0333333333333	0.1333333333333	0.0666666666667	2035.9295897483826	
4	1196.8461298942566	pulse	0	t		-1.0	1.0	-1.0	72.0	0.0333333333333	0.1333333333333	0.0666666666667	2037.5295338630676	
4	1198.4462258815765	pulse	0	t		-1.0	1.0	-1.0	72.0	0.0333333333333	0.1333333333333	0.0666666666667	2039.1296298503876	
4	1199.3877358436584	response	0	b		-1.0	1.0	-1.0	72.0	0.0333333333333	0.1333333333333	0.0666666666667	2040.0711398124695	
4	1200.0460679531097	pulse	0	t		-1.0	1.0	-1.0	72.0	0.0333333333333	0.1333333333333	0.0666666666667	2040.7294719219208	
4	1201.6461157798767	pulse	0	t		-1.0	1.0	-1.0	72.0	0.0333333333333	0.1333333333333	0.0666666666667	2042.3295197486877	
4	1203.24560880661	pulse	0	t		-1.0	1.0	-1.0	72.0	0.0333333333333	0.1333333333333	0.0666666666667	2043.9290127754211	
5	1203.2775897979736	stim	0		0	0.16666667	0.0666666666667	90.0	88.0	0.0333333333333	0.1333333333333	0.0666666666667	2043.9609937667847	23.99137306213379
5	1203.6056499481201	response	0	b		0.16666667	0.0666666666667	90.0	88.0	0.0333333333333	0.1333333333333	0.0666666666667	2044.2890539169312	
5	1204.8456218242645	pulse	0	t		0.16666667	0.0666666666667	90.0	88.0	0.0333333333333	0.1333333333333	0.0666666666667	2045.5290257930756	
5	1206.1359658241272	response	0	b		0.16666667	0.0666666666667	90.0	88.0	0.0333333333333	0.1333333333333	0.0666666666667	2046.8193697929382	
5	1206.445494890213	pulse	0	t		0.16666667	0.0666666666667	90.0	88.0	0.0333333333333	0.1333333333333	0.0666666666667	2047.128898859024	
5	1208.0454609394073	pulse	0	t		0.16666667	0.0666666666667	90.0	88.0	0.0333333333333	0.1333333333333	0.0666666666667	2048.7288649082184	
5	1209.6453318595886	pulse	0	t		0.16666667	0.0666666666667	90.0	88.0	0.0333333333333	0.1333333333333	0.0666666666667	2050.3287358283997	
5	1210.0532879829407	response	0	b		0.16666667	0.0666666666667	90.0	88.0	0.0333333333333	0.1333333333333	0.0666666666667	2050.7366919517517	
5	1211.2451899051666	pulse	0	t		0.16666667	0.0666666666667	90.0	88.0	0.0333333333333	0.1333333333333	0.0666666666667	2051.9285938739777	
5	1212.8451449871063	pulse	0	t		0.16666667	0.0666666666667	90.0	88.0	0.0333333333333	0.1333333333333	0.0666666666667	2053.5285489559174	
5	1214.4460098743439	pulse	0	t		0.16666667	0.0666666666667	90.0	88.0	0.0333333333333	0.1333333333333	0.0666666666667	2055.129413843155	
5	1216.045902967453	pulse	0	t		0.16666667	0.0666666666667	90.0	88.0	0.0333333333333	0.1333333333333	0.0666666666667	2056.729306936264	
5	1217.6457748413086	pulse	0	t		0.16666667	0.0666666666667	90.0	88.0	0.0333333333333	0.1333333333333	0.0666666666667	2058.3291788101196	
5	1219.2457749843597	pulse	0	t		0.16666667	0.0666666666667	90.0	88.0	0.0333333333333	0.1333333333333	0.0666666666667	2059.929178953171	
5	1219.8652019500732	response	0	b		0.16666667	0.0666666666667	90.0	88.0	0.0333333333333	0.1333333333333	0.0666666666667	2060.5486059188843	
5	1220.8456227779388	pulse	0	t		0.16666667	0.0666666666667	90.0	88.0	0.0333333333333	0.1333333333333	0.0666666666667	2061.52902674675	
5	1222.4455499649048	pulse	0	t		0.16666667	0.0666666666667	90.0	88.0	0.0333333333333	0.1333333333333	0.0666666666667	2063.128953933716	
5	1224.0454778671265	pulse	0	t		0.16666667	0.0666666666667	90.0	88.0	0.0333333333333	0.1333333333333	0.0666666666667	2064.7288818359375	
5	1225.2635369300842	response	0	b		0.16666667	0.0666666666667	90.0	88.0	0.0333333333333	0.1333333333333	0.0666666666667	2065.9469408988953	
5	1225.6453158855438	pulse	0	t		0.16666667	0.0666666666667	90.0	88.0	0.0333333333333	0.1333333333333	0.0666666666667	2066.328719854355	
5	1227.2452697753906	pulse	0	t		0.16666667	0.0666666666667	90.0	88.0	0.0333333333333	0.1333333333333	0.0666666666667	2067.9286737442017	
6	1227.2689628601074	stim	0		0	0.16666667	0.0666666666667	180.0	112.0	0.0333333333333	0.1333333333333	0.0666666666667	2067.9523668289185	23.9999520778656
6	1228.8451309204102	pulse	0	t		0.16666667	0.0666666666667	180.0	112.0	0.0333333333333	0.1333333333333	0.0666666666667	2069.528534889221	
6	1230.4450089931488	pulse	0	t		0.16666667	0.0666666666667	180.0	112.0	0.0333333333333	0.1333333333333	0.0666666666667	2071.12841296196	
6	1231.5829508304596	response	0	b		0.16666667	0.0666666666667	180.0	112.0	0.0333333333333	0.1333333333333	0.0666666666667	2072.2663547992706	
6	1232.0459158420563	pulse	0	t		0.16666667	0.0666666666667	180.0	112.0	0.0333333333333	0.1333333333333	0.0666666666667	2072.7293198108673	
6	1233.6458578109741	pulse	0	t		0.16666667	0.0666666666667	180.0	112.0	0.0333333333333	0.1333333333333	0.0666666666667	2074.329261779785	
6	1235.2457737922668	pulse	0	t		0.16666667	0.0666666666667	180.0	112.0	0.0333333333333	0.1333333333333	0.0666666666667	2075.929177761078	
6	1236.8457188606262	pulse	0	t		0.16666667	0.0666666666667	180.0	112.0	0.0333333333333	0.1333333333333	0.0666666666667	2077.5291228294373	
6	1238.4455769062042	pulse	0	t		0.16666667	0.0666666666667	180.0	112.0	0.0333333333333	0.1333333333333	0.0666666666667	2079.1289808750153	
6	1239.9934339523315	response	0	b		0.16666667	0.0666666666667	180.0	112.0	0.0333333333333	0.1333333333333	0.0666666666667	2080.6768379211426	
6	1240.045352935791	pulse	0	t		0.16666667	0.0666666666667	180.0	112.0	0.0333333333333	0.1333333333333	0.0666666666667	2080.728756904602	
6	1241.6453769207	pulse	0	t		0.16666667	0.0666666666667	180.0	112.0	0.0333333333333	0.1333333333333	0.0666666666667	2082.328780889511	
6	1243.245323896408	pulse	0	t		0.16666667	0.0666666666667	180.0	112.0	0.0333333333333	0.1333333333333	0.0666666666667	2083.928727865219	
6	1244.845142841339	pulse	0	t		0.16666667	0.0666666666667	180.0	112.0	0.0333333333333	0.1333333333333	0.0666666666667	2085.52854681015	
6	1246.445051908493	pulse	0	t		0.16666667	0.0666666666667	180.0	112.0	0.0333333333333	0.1333333333333	0.0666666666667	2087.128455877304	
6	1248.0460238456726	pulse	0	t		0.16666667	0.0666666666667	180.0	112.0	0.0333333333333	0.1333333333333	0.0666666666667	2088.7294278144836	
6	1249.3019988536835	response	0	b		0.16666667	0.0666666666667	180.0	112.0	0.0333333333333	0.1333333333333	0.0666666666667	2089.9854028224945	
6	1249.6458268165588	pulse	0	t		0.16666667	0.0666666666667	180.0	112.0	0.0333333333333	0.1333333333333	0.0666666666667	2090.32923078537	
6	1251.245799779892	pulse	0	t		0.16666667	0.0666666666667	180.0	112.0	0.0333333333333	0.1333333333333	0.0666666666667	2091.929203748703	
7	1251.268914937973	stim	0		0	-1.0	1.0	-1.0	136.0	0.0333333333333	0.1333333333333	0.0666666666667	2091.952318906784	16.008244037628174
7	1252.8458688259125	pulse	0	t		-1.0	1.0	-1.0	136.0	0.0333333333333	0.1333333333333	0.0666666666667	2093.5292727947235	
7	1254.4458708763123	pulse	0	t		-1.0	1.0	-1.0	136.0	0.0333333333333	0.1333333333333	0.0666666666667	2095.1292748451233	
7	1256.0458707809448	pulse	0	t		-1.0	1.0	-1.0	136.0	0.0333333333333	0.1333333333333	0.0666666666667	2096.729274749756	
7	1257.6458489894867	pulse	0	t		-1.0	1.0	-1.0	136.0	0.0333333333333	0.1333333333333	0.0666666666667	2098.3292529582977	
7	1257.7356808185577	response	0	b		-1.0	1.0	-1.0	136.0	0.0333333333333	0.1333333333333	0.0666666666667	2098.419084787369	
7	1259.2454388141632	pulse	0	t		-1.0	1.0	-1.0	136.0	0.0333333333333	0.1333333333333	0.0666666666667	2099.9288427829742	
7	1260.627371788025	response	0	b		-1.0	1.0	-1.0	136.0	0.0333333333333	0.1333333333333	0.0666666666667	2101.310775756836	
7	1260.8456058502197	pulse	0	t		-1.0	1.0	-1.0	136.0	0.0333333333333	0.1333333333333	0.0666666666667	2101.5290098190308	
7	1262.4458677768707	pulse	0	t		-1.0	1.0	-1.0	136.0	0.0333333333333	0.1333333333333	0.0666666666667	2103.1292717456818	
7	1264.052375793457	pulse	0	t		-1.0	1.0	-1.0	136.0	0.0333333333333	0.1333333333333	0.0666666666667	2104.735779762268	
7	1265.645882844925	pulse	0	t		-1.0	1.0	-1.0	136.0	0.0333333333333	0.1333333333333	0.0666666666667	2106.329286813736	
7	1267.25226187706	pulse	0	t		-1.0	1.0	-1.0	136.0	0.0333333333333	0.1333333333333	0.0666666666667	2107.935665845871	
8	1267.2771589756012	stim	0		0	-1.0	1.0	-1.0	152.0	0.0333333333333	0.1333333333333	0.0666666666667	2107.9605629444122	15.999884843826294
8	1268.8457357883453	pulse	0	t		-1.0	1.0	-1.0	152.0	0.0333333333333	0.1333333333333	0.0666666666667	2109.5291397571564	
8	1269.1105499267578	response	0	b		-1.0	1.0	-1.0	152.0	0.0333333333333	0.1333333333333	0.0666666666667	2109.793953895569	
8	1270.4456639289856	pulse	0	t		-1.0	1.0	-1.0	152.0	0.0333333333333	0.1333333333333	0.0666666666667	2111.1290678977966	
8	1272.0457317829132	pulse	0	t		-1.0	1.0	-1.0	152.0	0.0333333333333	0.1333333333333	0.0666666666667	2112.7291357517242	
8	1272.887414932251	response	0	b		-1.0	1.0	-1.0	152.0	0.0333333333333	0.1333333333333	0.0666666666667	2113.570818901062	
8	1273.6457889080048	pulse	0	t		-1.0	1.0	-1.0	152.0	0.0333333333333	0.1333333333333	0.0666666666667	2114.329192876816	
8	1275.2456607818604	pulse	0	t		-1.0	1.0	-1.0	152.0	0.0333333333333	0.1333333333333	0.0666666666667	2115.9290647506714	
8	1276.8272099494934	response	0	b		-1.0	1.0	-1.0	152.0	0.0333333333333	0.1333333333333	0.0666666666667	2117.5106139183044	
8	1276.8457419872284	pulse	0	t		-1.0	1.0	-1.0	152.0	0.0333333333333	0.1333333333333	0.0666666666667	2117.5291459560394	
8	1278.4522619247437	pulse	0	t		-1.0	1.0	-1.0	152.0	0.0333333333333	0.1333333333333	0.0666666666667	2119.1356658935547	
8	1280.0523178577423	pulse	0	t		-1.0	1.0	-1.0	152.0	0.0333333333333	0.1333333333333	0.0666666666667	2120.7357218265533	
8	1280.585590839386	response	0	b		-1.0	1.0	-1.0	152.0	0.0333333333333	0.1333333333333	0.0666666666667	2121.268994808197	
8	1281.6521689891815	pulse	0	t		-1.0	1.0	-1.0	152.0	0.0333333333333	0.1333333333333	0.0666666666667	2122.3355729579926	
8	1283.252231836319	pulse	0	t		-1.0	1.0	-1.0	152.0	0.0333333333333	0.1333333333333	0.0666666666667	2123.93563580513	
9	1283.2770438194275	stim	0		0	0.16666667	0.0666666666667	180.0	168.0	0.0333333333333	0.1333333333333	0.0666666666667	2123.9604477882385	23.991611003875732
9	1284.135735988617	response	0	b		0.16666667	0.0666666666667	180.0	168.0	0.0333333333333	0.1333333333333	0.0666666666667	2124.819139957428	
9	1284.845710992813	pulse	0	t		0.16666667	0.0666666666667	180.0	168.0	0.0333333333333	0.1333333333333	0.0666666666667	2125.529114961624	
9	1286.4456329345703	pulse	0	t		0.16666667	0.0666666666667	180.0	168.0	0.0333333333333	0.1333333333333	0.0666666666667	2127.1290369033813	
9	1288.0455508232117	pulse	0	t		0.16666667	0.0666666666667	180.0	168.0	0.0333333333333	0.1333333333333	0.0666666666667	2128.7289547920227	
9	1289.645437002182	pulse	0	t		0.16666667	0.0666666666667	180.0	168.0	0.0333333333333	0.1333333333333	0.0666666666667	2130.328840970993	
9	1289.906371831894	response	0	b		0.16666667	0.0666666666667	180.0	168.0	0.0333333333333	0.1333333333333	0.0666666666667	2130.589775800705	
9	1291.245357990265	pulse	0	t		0.16666667	0.0666666666667	180.0	168.0	0.0333333333333	0.1333333333333	0.0666666666667	2131.928761959076	
9	1292.845253944397	pulse	0	t		0.16666667	0.0666666666667	180.0	168.0	0.0333333333333	0.1333333333333	0.0666666666667	2133.528657913208	
9	1293.3356068134308	response	0	b		0.16666667	0.0666666666667	180.0	168.0	0.0333333333333	0.1333333333333	0.0666666666667	2134.019010782242	
9	1294.4451308250427	pulse	0	t		0.16666667	0.0666666666667	180.0	168.0	0.0333333333333	0.1333333333333	0.0666666666667	2135.1285347938538	
9	1296.0460739135742	pulse	0	t		0.16666667	0.0666666666667	180.0	168.0	0.0333333333333	0.1333333333333	0.0666666666667	2136.7294778823853	
9	1297.6460378170013	pulse	0	t		0.16666667	0.0666666666667	180.0	168.0	0.0333333333333	0.1333333333333	0.0666666666667	2138.3294417858124	
9	1297.7387359142303	response	0	b		0.16666667	0.0666666666667	180.0	168.0	0.0333333333333	0.1333333333333	0.0666666666667	2138.4221398830414	
9	1299.2458579540253	pulse	0	t		0.16666667	0.0666666666667	180.0	168.0	0.0333333333333	0.1333333333333	0.0666666666667	2139.9292619228363	
9	1300.8456819057465	pulse	0	t		0.16666667	0.0666666666667	180.0	168.0	0.0333333333333	0.1333333333333	0.0666666666667	2141.5290858745575	
9	1302.1146428585052	response	0	b		0.16666667	0.0666666666667	180.0	168.0	0.0333333333333	0.1333333333333	0.0666666666667	2142.7980468273163	
9	1302.4455649852753	pulse	0	t		0.16666667	0.0666666666667	180.0	168.0	0.0333333333333	0.1333333333333	0.0666666666667	2143.1289689540863	
9	1304.045581817627	pulse	0	t		0.16666667	0.0666666666667	180.0	168.0	0.0333333333333	0.1333333333333	0.0666666666667	2144.728985786438	
9	1305.6454730033875	pulse	0	t		0.16666667	0.0666666666667	180.0	168.0	0.0333333333333	0.1333333333333	0.0666666666667	2146.3288769721985	
9	1307.245412826538	pulse	0	t		0.16666667	0.0666666666667	180.0	168.0	0.0333333333333	0.1333333333333	0.0666666666667	2147.928816795349	
10	1307.2686548233032	stim	0		0	0.16666667	0.0666666666667	90.0	192.0	0.0333333333333	0.1333333333333	0.0666666666667	2147.9520587921143	23.999935150146484
10	1307.5903840065002	response	0	b		0.16666667	0.0666666666667	90.0	192.0	0.0333333333333	0.1333333333333	0.0666666666667	2148.2737879753113	
10	1308.8453578948975	pulse	0	t		0.16666667	0.0666666666667	90.0	192.0	0.0333333333333	0.1333333333333	0.0666666666667	2149.5287618637085	
10	1310.445233821869	pulse	0	t		0.16666667	0.0666666666667	90.0	192.0	0.0333333333333	0.1333333333333	0.0666666666667	2151.12863779068	
10	1311.5241448879242	response	0	b		0.16666667	0.0666666666667	90.0	192.0	0.0333333333333	0.1333333333333	0.0666666666667	2152.2075488567352	
10	1312.0460767745972	pulse	0	t		0.16666667	0.0666666666667	90.0	192.0	0.0333333333333	0.1333333333333	0.0666666666667	2152.729480743408	
10	1313.6459138393402	pulse	0	t		0.16666667	0.0666666666667	90.0	192.0	0.0333333333333	0.1333333333333	0.0666666666667	2154.3293178081512	
10	1315.2459499835968	pulse	0	t		0.16666667	0.0666666666667	90.0	192.0	0.0333333333333	0.1333333333333	0.0666666666667	2155.929353952408	
10	1316.8458619117737	pulse	0	t		0.16666667	0.0666666666667	90.0	192.0	0.0333333333333	0.1333333333333	0.0666666666667	2157.5292658805847	
10	1317.004725933075	response	0	b		0.16666667	0.0666666666667	90.0	192.0	0.0333333333333	0.1333333333333	0.0666666666667	2157.688129901886	
10	1318.4457488059998	pulse	0	t		0.16666667	0.0666666666667	90.0	192.0	0.0333333333333	0.1333333333333	0.0666666666667	2159.129152774811	
10	1320.0456788539886	pulse	0	t		0.16666667	0.0666666666667	90.0	192.0	0.0333333333333	0.1333333333333	0.0666666666667	2160.7290828227997	
10	1321.6455988883972	pulse	0	t		0.16666667	0.0666666666667	90.0	192.0	0.0333333333333	0.1333333333333	0.0666666666667	2162.3290028572083	
10	1323.2453978061676	pulse	0	t		0.16666667	0.0666666666667	90.0	192.0	0.0333333333333	0.1333333333333	0.0666666666667	2163.9288017749786	
10	1324.8453619480133	pulse	0	t		0.16666667	0.0666666666667	90.0	192.0	0.0333333333333	0.1333333333333	0.0666666666667	2165.5287659168243	
10	1325.5083758831024	response	0	b		0.16666667	0.0666666666667	90.0	192.0	0.0333333333333	0.1333333333333	0.0666666666667	2166.1917798519135	
10	1326.4452259540558	pulse	0	t		0.16666667	0.0666666666667	90.0	192.0	0.0333333333333	0.1333333333333	0.0666666666667	2167.128629922867	
10	1328.0461847782135	pulse	0	t		0.16666667	0.0666666666667	90.0	192.0	0.0333333333333	0.1333333333333	0.0666666666667	2168.7295887470245	
10	1329.3159818649292	response	0	b		0.16666667	0.0666666666667	90.0	192.0	0.0333333333333	0.1333333333333	0.0666666666667	2169.9993858337402	
10	1329.6459758281708	pulse	0	t		0.16666667	0.0666666666667	90.0	192.0	0.0333333333333	0.1333333333333	0.0666666666667	2170.329379796982	
10	1331.2459650039673	pulse	0	t		0.16666667	0.0666666666667	90.0	192.0	0.0333333333333	0.1333333333333	0.0666666666667	2171.9293689727783	
11	1331.2685899734497	stim	0		0	-1.0	1.0	-1.0	216.0	0.0333333333333	0.1333333333333	0.0666666666667	2171.9519939422607	16.008140802383423
11	1331.4686679840088	response	0	b		-1.0	1.0	-1.0	216.0	0.0333333333333	0.1333333333333	0.0666666666667	2172.15207195282	
11	1332.8519818782806	pulse	0	t		-1.0	1.0	-1.0	216.0	0.0333333333333	0.1333333333333	0.0666666666667	2173.5353858470917	
11	1334.0936388969421	response	0	b		-1.0	1.0	-1.0	216.0	0.0333333333333	0.1333333333333	0.0666666666667	2174.777042865753	
11	1334.4520139694214	pulse	0	t		-1.0	1.0	-1.0	216.0	0.0333333333333	0.1333333333333	0.0666666666667	2175.1354179382324	
11	1336.0519828796387	pulse	0	t		-1.0	1.0	-1.0	216.0	0.0333333333333	0.1333333333333	0.0666666666667	2176.7353868484497	
11	1336.935287952423	response	0	b		-1.0	1.0	-1.0	216.0	0.0333333333333	0.1333333333333	0.0666666666667	2177.618691921234	
11	1337.6519718170166	pulse	0	t		-1.0	1.0	-1.0	216.0	0.0333333333333	0.1333333333333	0.0666666666667	2178.3353757858276	
11	1339.2454929351807	pulse	0	t		-1.0	1.0	-1.0	216.0	0.0333333333333	0.1333333333333	0.0666666666667	2179.9288969039917	
11	1340.8455708026886	pulse	0	t		-1.0	1.0	-1.0	216.0	0.0333333333333	0.1333333333333	0.0666666666667	2181.5289747714996	
11	1341.9037668704987	response	0	b		-1.0	1.0	-1.0	216.0	0.0333333333333	0.1333333333333	0.0666666666667	2182.5871708393097	
11	1342.4454259872437	pulse	0	t		-1.0	1.0	-1.0	216.0	0.0333333333333	0.1333333333333	0.0666666666667	2183.1288299560547	
11	1344.052039861679	pulse	0	t		-1.0	1.0	-1.0	216.0	0.0333333333333	0.1333333333333	0.0666666666667	2184.73544383049	
11	1344.9205729961395	response	0	b		-1.0	1.0	-1.0	216.0	0.0333333333333	0.1333333333333	0.0666666666667	2185.6039769649506	
11	1345.651960849762	pulse	0	t		-1.0	1.0	-1.0	216.0	0.0333333333333	0.1333333333333	0.0666666666667	2186.335364818573	
11	1347.0853388309479	response	0	b		-1.0	1.0	-1.0	216.0	0.0333333333333	0.1333333333333	0.0666666666667	2187.768742799759	
11	1347.251916885376	pulse	0	t		-1.0	1.0	-1.0	216.0	0.0333333333333	0.1333333333333	0.0666666666667	2187.935320854187	
12	1347.2767307758331	stim	0		0	0.16666667	0.0666666666667	0.0	232.0	0.0333333333333	0.1333333333333	0.0666666666667	2187.960134744644	23.991732120513916
12	1348.8459157943726	pulse	0	t		0.16666667	0.0666666666667	0.0	232.0	0.0333333333333	0.1333333333333	0.0666666666667	2189.5293197631836	
12	1349.8198988437653	response	0	b		0.16666667	0.0666666666667	0.0	232.0	0.0333333333333	0.1333333333333	0.0666666666667	2190.5033028125763	
12	1350.4458239078522	pulse	0	t		0.16666667	0.0666666666667	0.0	232.0	0.0333333333333	0.1333333333333	0.0666666666667	2191.129227876663	
12	1352.0458178520203	pulse	0	t		0.16666667	0.0666666666667	0.0	232.0	0.0333333333333	0.1333333333333	0.0666666666667	2192.7292218208313	
12	1352.71675491333	response	0	b		0.16666667	0.0666666666667	0.0	232.0	0.0333333333333	0.1333333333333	0.0666666666667	2193.400158882141	
12	1353.6456379890442	pulse	0	t		0.16666667	0.0666666666667	0.0	232.0	0.0333333333333	0.1333333333333	0.0666666666667	2194.329041957855	
12	1355.245531797409	pulse	0	t		0.16666667	0.0666666666667	0.0	232.0	0.0333333333333	0.1333333333333	0.0666666666667	2195.92893576622	
12	1355.3319189548492	response	0	b		0.16666667	0.0666666666667	0.0	232.0	0.0333333333333	0.1333333333333	0.0666666666667	2196.0153229236603	
12	1356.8453259468079	pulse	0	t		0.16666667	0.0666666666667	0.0	232.0	0.0333333333333	0.1333333333333	0.0666666666667	2197.528729915619	
12	1358.445261001587	pulse	0	t		0.16666667	0.0666666666667	0.0	232.0	0.0333333333333	0.1333333333333	0.0666666666667	2199.128664970398	
12	1360.0461168289185	pulse	0	t		0.16666667	0.0666666666667	0.0	232.0	0.0333333333333	0.1333333333333	0.0666666666667	2200.7295207977295	
12	1360.8991129398346	response	0	b		0.16666667	0.0666666666667	0.0	232.0	0.0333333333333	0.1333333333333	0.0666666666667	2201.5825169086456	
12	1361.6460649967194	pulse	0	t		0.16666667	0.0666666666667	0.0	232.0	0.0333333333333	0.1333333333333	0.0666666666667	2202.3294689655304	
12	1363.2459988594055	pulse	0	t		0.16666667	0.0666666666667	0.0	232.0	0.0333333333333	0.1333333333333	0.0666666666667	2203.9294028282166	
12	1364.6108329296112	response	0	b		0.16666667	0.0666666666667	0.0	232.0	0.0333333333333	0.1333333333333	0.0666666666667	2205.2942368984222	
12	1364.8457658290863	pulse	0	t		0.16666667	0.0666666666667	0.0	232.0	0.0333333333333	0.1333333333333	0.0666666666667	2205.5291697978973	
12	1366.445767879486	pulse	0	t		0.16666667	0.0666666666667	0.0	232.0	0.0333333333333	0.1333333333333	0.0666666666667	2207.129171848297	
12	1368.0456199645996	pulse	0	t		0.16666667	0.0666666666667	0.0	232.0	0.0333333333333	0.1333333333333	0.0666666666667	2208.7290239334106	
12	1369.6454908847809	pulse	0	t		0.16666667	0.0666666666667	0.0	232.0	0.0333333333333	0.1333333333333	0.0666666666667	2210.328894853592	
12	1370.8864679336548	response	0	b		0.16666667	0.0666666666667	0.0	232.0	0.0333333333333	0.1333333333333	0.0666666666667	2211.569871902466	
12	1371.2453479766846	pulse	0	t		0.16666667	0.0666666666667	0.0	232.0	0.0333333333333	0.1333333333333	0.0666666666667	2211.9287519454956	
13	1371.268462896347	stim	0		0	0.16666667	0.0666666666667	270.0	256.0	0.0333333333333	0.1333333333333	0.0666666666667	2211.951866865158	24.00805902481079
13	1372.845431804657	pulse	0	t		0.16666667	0.0666666666667	270.0	256.0	0.0333333333333	0.1333333333333	0.0666666666667	2213.528835773468	
13	1374.4453039169312	pulse	0	t		0.16666667	0.0666666666667	270.0	256.0	0.0333333333333	0.1333333333333	0.0666666666667	2215.128707885742	
13	1374.6962099075317	response	0	b		0.16666667	0.0666666666667	270.0	256.0	0.0333333333333	0.1333333333333	0.0666666666667	2215.379613876343	
13	1376.0461838245392	pulse	0	t		0.16666667	0.0666666666667	270.0	256.0	0.0333333333333	0.1333333333333	0.0666666666667	2216.72958779335	
13	1376.8510348796844	response	0	b		0.16666667	0.0666666666667	270.0	256.0	0.0333333333333	0.1333333333333	0.0666666666667	2217.5344388484955	
13	1377.646106004715	pulse	0	t		0.16666667	0.0666666666667	270.0	256.0	0.0333333333333	0.1333333333333	0.0666666666667	2218.329509973526	
13	1379.2459318637848	pulse	0	t		0.16666667	0.0666666666667	270.0	256.0	0.0333333333333	0.1333333333333	0.0666666666667	2219.929335832596	
13	1380.5598847866058	response	0	b		0.16666667	0.0666666666667	270.0	256.0	0.0333333333333	0.1333333333333	0.0666666666667	2221.243288755417	
13	1380.8457729816437	pulse	0	t		0.16666667	0.0666666666667	270.0	256.0	0.0333333333333	0.1333333333333	0.0666666666667	2221.5291769504547	
13	1382.4458558559418	pulse	0	t		0.16666667	0.0666666666667	270.0	256.0	0.0333333333333	0.1333333333333	0.0666666666667	2223.129259824753	
13	1383.091745853424	response	0	b		0.16666667	0.0666666666667	270.0	256.0	0.0333333333333	0.1333333333333	0.0666666666667	2223.775149822235	
13	1384.0456228256226	pulse	0	t		0.16666667	0.0666666666667	270.0	256.0	0.0333333333333	0.1333333333333	0.0666666666667	2224.7290267944336	
13	1385.5825917720795	response	0	b		0.16666667	0.0666666666667	270.0	256.0	0.0333333333333	0.1333333333333	0.0666666666667	2226.2659957408905	
13	1385.6453959941864	pulse	0	t		0.16666667	0.0666666666667	270.0	256.0	0.0333333333333	0.1333333333333	0.0666666666667	2226.3287999629974	
13	1387.2455098628998	pulse	0	t		0.16666667	0.0666666666667	270.0	256.0	0.0333333333333	0.1333333333333	0.0666666666667	2227.928913831711	
13	1388.8454008102417	pulse	0	t		0.16666667	0.0666666666667	270.0	256.0	0.0333333333333	0.1333333333333	0.0666666666667	2229.5288047790527	
13	1389.4313337802887	response	0	b		0.16666667	0.0666666666667	270.0	256.0	0.0333333333333	0.1333333333333	0.0666666666667	2230.1147377490997	
13	1390.4452409744263	pulse	0	t		0.16666667	0.0666666666667	270.0	256.0	0.0333333333333	0.1333333333333	0.0666666666667	2231.1286449432373	
13	1392.0462288856506	pulse	0	t		0.16666667	0.0666666666667	270.0	256.0	0.0333333333333	0.1333333333333	0.0666666666667	2232.7296328544617	
13	1393.6461157798767	pulse	0	t		0.16666667	0.0666666666667	270.0	256.0	0.0333333333333	0.1333333333333	0.0666666666667	2234.3295197486877	
13	1395.2459998130798	pulse	0	t		0.16666667	0.0666666666667	270.0	256.0	0.0333333333333	0.1333333333333	0.0666666666667	2235.929403781891	
14	1395.2765219211578	stim	0		0								2235.959925889969	24.51668691635132
14	1396.851744890213	pulse	0	t									2237.535148859024	
14	1398.4516987800598	pulse	0	t									2239.135102748871	
14	1400.0516519546509	pulse	0	t									2240.735055923462	
14	1401.65168094635	pulse	0	t									2242.335084915161	
14	1403.251622915268	pulse	0	t									2243.935026884079	
14	1404.8515729904175	pulse	0	t									2245.5349769592285	
14	1406.4451727867126	pulse	0	t									2247.1285767555237	
14	1408.0516657829285	pulse	0	t									2248.7350697517395	
14	1409.6516449451447	pulse	0	t									2250.3350489139557	
14	1411.251618862152	pulse	0	t									2251.935022830963	
14	1412.851557970047	pulse	0	t									2253.534961938858	
14	1414.4515569210052	pulse	0	t									2255.1349608898163	
14	1416.0515048503876	pulse	0	t									2256.7349088191986	
14	1417.6515259742737	pulse	0	t									2258.3349299430847	
14	1419.251503944397	pulse	0	t									2259.934907913208	
