trial_nr	onset	event_type	phase	response	nr_frames	bar_width	bar_refresh_time	bar_direction	start_time	bar_blank_duration	bar_blank_interval	bg_stim_refresh_time	onset_abs	duration
0	0.18336701393127441	stim	0		0								45.72866916656494	0.2999861240386963
0	0.46902918815612793	response	0	space									46.014331340789795	
1	0.4833531379699707	stim	0		0								46.02865529060364	56.07856893539429
1	56.53204298019409	pulse	0	t									102.07734513282776	
1	56.56192207336426	stim	1		0								102.10722422599792	0.0008459091186523438
1	56.56276798248291	stim	0		0								102.10807013511658	23.999194145202637
1	58.12740898132324	pulse	0	t									103.67271113395691	
1	59.72764801979065	pulse	0	t									105.27295017242432	
1	61.03426003456116	response	0	b									106.57956218719482	
1	61.32771706581116	pulse	0	t									106.87301921844482	
1	62.92807602882385	pulse	0	t									108.47337818145752	
1	64.5282530784607	pulse	0	t									110.07355523109436	
1	65.1931631565094	response	0	b									110.73846530914307	
1	66.12835097312927	pulse	0	t									111.67365312576294	
1	67.72698497772217	pulse	0	t									113.27228713035583	
1	68.0537121295929	response	0	b									113.59901428222656	
1	69.32701015472412	pulse	0	t									114.87231230735779	
1	70.31064701080322	response	0	b									115.85594916343689	
1	70.92736196517944	pulse	0	t									116.47266411781311	
1	72.52765417098999	pulse	0	t									118.07295632362366	
1	73.25455212593079	response	0	b									118.79985427856445	
1	74.12777209281921	pulse	0	t									119.67307424545288	
1	75.46135997772217	response	0	b									121.00666213035583	
1	75.72799611091614	pulse	0	t									121.2732982635498	
1	77.3282401561737	pulse	0	t									122.87354230880737	
1	78.92860317230225	pulse	0	t									124.47390532493591	
1	80.52880001068115	pulse	0	t									126.07410216331482	
2	80.56196212768555	stim	0		0	0.16666667	0.0666666666667	270.0	24.0	0.0333333333333	0.1333333333333	0.0666666666667	126.10726428031921	24.003582000732422
2	82.12688302993774	pulse	0	t		0.16666667	0.0666666666667	270.0	24.0	0.0333333333333	0.1333333333333	0.0666666666667	127.67218518257141	
2	82.27172708511353	response	0	b		0.16666667	0.0666666666667	270.0	24.0	0.0333333333333	0.1333333333333	0.0666666666667	127.81702923774719	
2	83.72681617736816	pulse	0	t		0.16666667	0.0666666666667	270.0	24.0	0.0333333333333	0.1333333333333	0.0666666666667	129.27211833000183	
2	84.59187412261963	response	0	b		0.16666667	0.0666666666667	270.0	24.0	0.0333333333333	0.1333333333333	0.0666666666667	130.1371762752533	
2	85.32683801651001	pulse	0	t		0.16666667	0.0666666666667	270.0	24.0	0.0333333333333	0.1333333333333	0.0666666666667	130.87214016914368	
2	86.92690706253052	pulse	0	t		0.16666667	0.0666666666667	270.0	24.0	0.0333333333333	0.1333333333333	0.0666666666667	132.47220921516418	
2	88.52694010734558	pulse	0	t		0.16666667	0.0666666666667	270.0	24.0	0.0333333333333	0.1333333333333	0.0666666666667	134.07224225997925	
2	90.12698006629944	pulse	0	t		0.16666667	0.0666666666667	270.0	24.0	0.0333333333333	0.1333333333333	0.0666666666667	135.6722822189331	
2	90.67387318611145	response	0	b		0.16666667	0.0666666666667	270.0	24.0	0.0333333333333	0.1333333333333	0.0666666666667	136.21917533874512	
2	91.72694897651672	pulse	0	t		0.16666667	0.0666666666667	270.0	24.0	0.0333333333333	0.1333333333333	0.0666666666667	137.2722511291504	
2	93.32693314552307	pulse	0	t		0.16666667	0.0666666666667	270.0	24.0	0.0333333333333	0.1333333333333	0.0666666666667	138.87223529815674	
2	94.92598795890808	pulse	0	t		0.16666667	0.0666666666667	270.0	24.0	0.0333333333333	0.1333333333333	0.0666666666667	140.47129011154175	
2	95.23691415786743	response	0	b		0.16666667	0.0666666666667	270.0	24.0	0.0333333333333	0.1333333333333	0.0666666666667	140.7822163105011	
2	96.52596712112427	pulse	0	t		0.16666667	0.0666666666667	270.0	24.0	0.0333333333333	0.1333333333333	0.0666666666667	142.07126927375793	
2	98.12599205970764	pulse	0	t		0.16666667	0.0666666666667	270.0	24.0	0.0333333333333	0.1333333333333	0.0666666666667	143.6712942123413	
2	99.72608017921448	pulse	0	t		0.16666667	0.0666666666667	270.0	24.0	0.0333333333333	0.1333333333333	0.0666666666667	145.27138233184814	
2	100.63000011444092	response	0	b		0.16666667	0.0666666666667	270.0	24.0	0.0333333333333	0.1333333333333	0.0666666666667	146.17530226707458	
2	101.32608413696289	pulse	0	t		0.16666667	0.0666666666667	270.0	24.0	0.0333333333333	0.1333333333333	0.0666666666667	146.87138628959656	
2	102.92606711387634	pulse	0	t		0.16666667	0.0666666666667	270.0	24.0	0.0333333333333	0.1333333333333	0.0666666666667	148.47136926651	
2	103.24506402015686	response	0	b		0.16666667	0.0666666666667	270.0	24.0	0.0333333333333	0.1333333333333	0.0666666666667	148.79036617279053	
2	104.52605414390564	pulse	0	t		0.16666667	0.0666666666667	270.0	24.0	0.0333333333333	0.1333333333333	0.0666666666667	150.0713562965393	
3	104.56554412841797	stim	0		0	0.16666667	0.0666666666667	0.0	48.0	0.0333333333333	0.1333333333333	0.0666666666667	150.11084628105164	24.00363302230835
3	106.12615704536438	pulse	0	t		0.16666667	0.0666666666667	0.0	48.0	0.0333333333333	0.1333333333333	0.0666666666667	151.67145919799805	
3	107.7261791229248	pulse	0	t		0.16666667	0.0666666666667	0.0	48.0	0.0333333333333	0.1333333333333	0.0666666666667	153.27148127555847	
3	109.3262391090393	pulse	0	t		0.16666667	0.0666666666667	0.0	48.0	0.0333333333333	0.1333333333333	0.0666666666667	154.87154126167297	
3	110.92618012428284	pulse	0	t		0.16666667	0.0666666666667	0.0	48.0	0.0333333333333	0.1333333333333	0.0666666666667	156.4714822769165	
3	111.03207111358643	response	0	b		0.16666667	0.0666666666667	0.0	48.0	0.0333333333333	0.1333333333333	0.0666666666667	156.5773732662201	
3	112.52617597579956	pulse	0	t		0.16666667	0.0666666666667	0.0	48.0	0.0333333333333	0.1333333333333	0.0666666666667	158.07147812843323	
3	113.15571999549866	response	0	b		0.16666667	0.0666666666667	0.0	48.0	0.0333333333333	0.1333333333333	0.0666666666667	158.70102214813232	
3	114.12617707252502	pulse	0	t		0.16666667	0.0666666666667	0.0	48.0	0.0333333333333	0.1333333333333	0.0666666666667	159.6714792251587	
3	115.1702389717102	response	0	b		0.16666667	0.0666666666667	0.0	48.0	0.0333333333333	0.1333333333333	0.0666666666667	160.71554112434387	
3	115.726243019104	pulse	0	t		0.16666667	0.0666666666667	0.0	48.0	0.0333333333333	0.1333333333333	0.0666666666667	161.27154517173767	
3	117.32628417015076	pulse	0	t		0.16666667	0.0666666666667	0.0	48.0	0.0333333333333	0.1333333333333	0.0666666666667	162.87158632278442	
3	118.92629218101501	pulse	0	t		0.16666667	0.0666666666667	0.0	48.0	0.0333333333333	0.1333333333333	0.0666666666667	164.47159433364868	
3	119.36020302772522	response	0	b		0.16666667	0.0666666666667	0.0	48.0	0.0333333333333	0.1333333333333	0.0666666666667	164.9055051803589	
3	120.52628803253174	pulse	0	t		0.16666667	0.0666666666667	0.0	48.0	0.0333333333333	0.1333333333333	0.0666666666667	166.0715901851654	
3	121.83226609230042	response	0	b		0.16666667	0.0666666666667	0.0	48.0	0.0333333333333	0.1333333333333	0.0666666666667	167.37756824493408	
3	122.12623310089111	pulse	0	t		0.16666667	0.0666666666667	0.0	48.0	0.0333333333333	0.1333333333333	0.0666666666667	167.67153525352478	
3	123.72629809379578	pulse	0	t		0.16666667	0.0666666666667	0.0	48.0	0.0333333333333	0.1333333333333	0.0666666666667	169.27160024642944	
3	124.6123161315918	response	0	b		0.16666667	0.0666666666667	0.0	48.0	0.0333333333333	0.1333333333333	0.0666666666667	170.15761828422546	
3	125.32632207870483	pulse	0	t		0.16666667	0.0666666666667	0.0	48.0	0.0333333333333	0.1333333333333	0.0666666666667	170.8716242313385	
3	126.92633199691772	pulse	0	t		0.16666667	0.0666666666667	0.0	48.0	0.0333333333333	0.1333333333333	0.0666666666667	172.4716341495514	
3	128.5263991355896	pulse	0	t		0.16666667	0.0666666666667	0.0	48.0	0.0333333333333	0.1333333333333	0.0666666666667	174.07170128822327	
4	128.56917715072632	stim	0		0	-1.0	1.0	-1.0	72.0	0.0333333333333	0.1333333333333	0.0666666666667	174.11447930335999	15.995323896408081
4	129.31949496269226	response	0	b		-1.0	1.0	-1.0	72.0	0.0333333333333	0.1333333333333	0.0666666666667	174.86479711532593	
4	130.1278371810913	pulse	0	t		-1.0	1.0	-1.0	72.0	0.0333333333333	0.1333333333333	0.0666666666667	175.67313933372498	
4	131.7281939983368	pulse	0	t		-1.0	1.0	-1.0	72.0	0.0333333333333	0.1333333333333	0.0666666666667	177.27349615097046	
4	131.82819414138794	response	0	b		-1.0	1.0	-1.0	72.0	0.0333333333333	0.1333333333333	0.0666666666667	177.3734962940216	
4	133.32845497131348	pulse	0	t		-1.0	1.0	-1.0	72.0	0.0333333333333	0.1333333333333	0.0666666666667	178.87375712394714	
4	134.8387851715088	response	0	b		-1.0	1.0	-1.0	72.0	0.0333333333333	0.1333333333333	0.0666666666667	180.38408732414246	
4	134.92854714393616	pulse	0	t		-1.0	1.0	-1.0	72.0	0.0333333333333	0.1333333333333	0.0666666666667	180.47384929656982	
4	136.52879214286804	pulse	0	t		-1.0	1.0	-1.0	72.0	0.0333333333333	0.1333333333333	0.0666666666667	182.0740942955017	
4	136.87881302833557	response	0	b		-1.0	1.0	-1.0	72.0	0.0333333333333	0.1333333333333	0.0666666666667	182.42411518096924	
4	138.129075050354	pulse	0	t		-1.0	1.0	-1.0	72.0	0.0333333333333	0.1333333333333	0.0666666666667	183.67437720298767	
4	139.72934699058533	pulse	0	t		-1.0	1.0	-1.0	72.0	0.0333333333333	0.1333333333333	0.0666666666667	185.274649143219	
4	141.01272916793823	response	0	b		-1.0	1.0	-1.0	72.0	0.0333333333333	0.1333333333333	0.0666666666667	186.5580313205719	
4	141.32953715324402	pulse	0	t		-1.0	1.0	-1.0	72.0	0.0333333333333	0.1333333333333	0.0666666666667	186.87483930587769	
4	142.92969703674316	pulse	0	t		-1.0	1.0	-1.0	72.0	0.0333333333333	0.1333333333333	0.0666666666667	188.47499918937683	
4	144.53000712394714	pulse	0	t		-1.0	1.0	-1.0	72.0	0.0333333333333	0.1333333333333	0.0666666666667	190.0753092765808	
5	144.5645010471344	stim	0		0	0.16666667	0.0666666666667	90.0	88.0	0.0333333333333	0.1333333333333	0.0666666666667	190.10980319976807	24.002267122268677
5	146.12695717811584	pulse	0	t		0.16666667	0.0666666666667	90.0	88.0	0.0333333333333	0.1333333333333	0.0666666666667	191.6722593307495	
5	146.14042496681213	response	0	b		0.16666667	0.0666666666667	90.0	88.0	0.0333333333333	0.1333333333333	0.0666666666667	191.6857271194458	
5	147.72665405273438	pulse	0	t		0.16666667	0.0666666666667	90.0	88.0	0.0333333333333	0.1333333333333	0.0666666666667	193.27195620536804	
5	149.32661199569702	pulse	0	t		0.16666667	0.0666666666667	90.0	88.0	0.0333333333333	0.1333333333333	0.0666666666667	194.8719141483307	
5	149.97757816314697	response	0	b		0.16666667	0.0666666666667	90.0	88.0	0.0333333333333	0.1333333333333	0.0666666666667	195.52288031578064	
5	150.92664003372192	pulse	0	t		0.16666667	0.0666666666667	90.0	88.0	0.0333333333333	0.1333333333333	0.0666666666667	196.4719421863556	
5	152.52669715881348	pulse	0	t		0.16666667	0.0666666666667	90.0	88.0	0.0333333333333	0.1333333333333	0.0666666666667	198.07199931144714	
5	153.2536940574646	response	0	b		0.16666667	0.0666666666667	90.0	88.0	0.0333333333333	0.1333333333333	0.0666666666667	198.79899621009827	
5	154.12667107582092	pulse	0	t		0.16666667	0.0666666666667	90.0	88.0	0.0333333333333	0.1333333333333	0.0666666666667	199.6719732284546	
5	155.72672605514526	pulse	0	t		0.16666667	0.0666666666667	90.0	88.0	0.0333333333333	0.1333333333333	0.0666666666667	201.27202820777893	
5	156.67269802093506	response	0	b		0.16666667	0.0666666666667	90.0	88.0	0.0333333333333	0.1333333333333	0.0666666666667	202.21800017356873	
5	157.3267970085144	pulse	0	t		0.16666667	0.0666666666667	90.0	88.0	0.0333333333333	0.1333333333333	0.0666666666667	202.87209916114807	
5	158.92675113677979	pulse	0	t		0.16666667	0.0666666666667	90.0	88.0	0.0333333333333	0.1333333333333	0.0666666666667	204.47205328941345	
5	160.0637390613556	response	0	b		0.16666667	0.0666666666667	90.0	88.0	0.0333333333333	0.1333333333333	0.0666666666667	205.60904121398926	
5	160.5267210006714	pulse	0	t		0.16666667	0.0666666666667	90.0	88.0	0.0333333333333	0.1333333333333	0.0666666666667	206.07202315330505	
5	162.12679815292358	pulse	0	t		0.16666667	0.0666666666667	90.0	88.0	0.0333333333333	0.1333333333333	0.0666666666667	207.67210030555725	
5	162.40569710731506	response	0	b		0.16666667	0.0666666666667	90.0	88.0	0.0333333333333	0.1333333333333	0.0666666666667	207.95099925994873	
5	163.72688817977905	pulse	0	t		0.16666667	0.0666666666667	90.0	88.0	0.0333333333333	0.1333333333333	0.0666666666667	209.27219033241272	
5	165.1058371067047	response	0	b		0.16666667	0.0666666666667	90.0	88.0	0.0333333333333	0.1333333333333	0.0666666666667	210.65113925933838	
5	165.32675909996033	pulse	0	t		0.16666667	0.0666666666667	90.0	88.0	0.0333333333333	0.1333333333333	0.0666666666667	210.872061252594	
5	166.92685198783875	pulse	0	t		0.16666667	0.0666666666667	90.0	88.0	0.0333333333333	0.1333333333333	0.0666666666667	212.4721541404724	
5	168.51591300964355	response	0	b		0.16666667	0.0666666666667	90.0	88.0	0.0333333333333	0.1333333333333	0.0666666666667	214.06121516227722	
5	168.52669501304626	pulse	0	t		0.16666667	0.0666666666667	90.0	88.0	0.0333333333333	0.1333333333333	0.0666666666667	214.07199716567993	
6	168.56676816940308	stim	0		0	0.16666667	0.0666666666667	180.0	112.0	0.0333333333333	0.1333333333333	0.0666666666667	214.11207032203674	23.995272874832153
6	170.1268651485443	pulse	0	t		0.16666667	0.0666666666667	180.0	112.0	0.0333333333333	0.1333333333333	0.0666666666667	215.67216730117798	
6	171.72689700126648	pulse	0	t		0.16666667	0.0666666666667	180.0	112.0	0.0333333333333	0.1333333333333	0.0666666666667	217.27219915390015	
6	172.97292017936707	response	0	b		0.16666667	0.0666666666667	180.0	112.0	0.0333333333333	0.1333333333333	0.0666666666667	218.51822233200073	
6	173.32682299613953	pulse	0	t		0.16666667	0.0666666666667	180.0	112.0	0.0333333333333	0.1333333333333	0.0666666666667	218.8721251487732	
6	174.92695212364197	pulse	0	t		0.16666667	0.0666666666667	180.0	112.0	0.0333333333333	0.1333333333333	0.0666666666667	220.47225427627563	
6	176.52694010734558	pulse	0	t		0.16666667	0.0666666666667	180.0	112.0	0.0333333333333	0.1333333333333	0.0666666666667	222.07224225997925	
6	178.12694716453552	pulse	0	t		0.16666667	0.0666666666667	180.0	112.0	0.0333333333333	0.1333333333333	0.0666666666667	223.6722493171692	
6	178.27180004119873	response	0	b		0.16666667	0.0666666666667	180.0	112.0	0.0333333333333	0.1333333333333	0.0666666666667	223.8171021938324	
6	179.72704815864563	pulse	0	t		0.16666667	0.0666666666667	180.0	112.0	0.0333333333333	0.1333333333333	0.0666666666667	225.2723503112793	
6	181.32696104049683	pulse	0	t		0.16666667	0.0666666666667	180.0	112.0	0.0333333333333	0.1333333333333	0.0666666666667	226.8722631931305	
6	182.92710399627686	pulse	0	t		0.16666667	0.0666666666667	180.0	112.0	0.0333333333333	0.1333333333333	0.0666666666667	228.47240614891052	
6	184.04612517356873	response	0	b		0.16666667	0.0666666666667	180.0	112.0	0.0333333333333	0.1333333333333	0.0666666666667	229.5914273262024	
6	184.5270640850067	pulse	0	t		0.16666667	0.0666666666667	180.0	112.0	0.0333333333333	0.1333333333333	0.0666666666667	230.07236623764038	
6	186.12709403038025	pulse	0	t		0.16666667	0.0666666666667	180.0	112.0	0.0333333333333	0.1333333333333	0.0666666666667	231.67239618301392	
6	187.72705912590027	pulse	0	t		0.16666667	0.0666666666667	180.0	112.0	0.0333333333333	0.1333333333333	0.0666666666667	233.27236127853394	
6	189.05807614326477	response	0	b		0.16666667	0.0666666666667	180.0	112.0	0.0333333333333	0.1333333333333	0.0666666666667	234.60337829589844	
6	189.32699418067932	pulse	0	t		0.16666667	0.0666666666667	180.0	112.0	0.0333333333333	0.1333333333333	0.0666666666667	234.872296333313	
6	190.92610812187195	pulse	0	t		0.16666667	0.0666666666667	180.0	112.0	0.0333333333333	0.1333333333333	0.0666666666667	236.47141027450562	
6	191.79414415359497	response	0	b		0.16666667	0.0666666666667	180.0	112.0	0.0333333333333	0.1333333333333	0.0666666666667	237.33944630622864	
6	192.52715802192688	pulse	0	t		0.16666667	0.0666666666667	180.0	112.0	0.0333333333333	0.1333333333333	0.0666666666667	238.07246017456055	
7	192.56204104423523	stim	0		0	-1.0	1.0	-1.0	136.0	0.0333333333333	0.1333333333333	0.0666666666667	238.1073431968689	16.00232696533203
7	194.1291220188141	pulse	0	t		-1.0	1.0	-1.0	136.0	0.0333333333333	0.1333333333333	0.0666666666667	239.67442417144775	
7	195.5127100944519	response	0	b		-1.0	1.0	-1.0	136.0	0.0333333333333	0.1333333333333	0.0666666666667	241.05801224708557	
7	195.729266166687	pulse	0	t		-1.0	1.0	-1.0	136.0	0.0333333333333	0.1333333333333	0.0666666666667	241.27456831932068	
7	197.32960104942322	pulse	0	t		-1.0	1.0	-1.0	136.0	0.0333333333333	0.1333333333333	0.0666666666667	242.87490320205688	
7	198.9297480583191	pulse	0	t		-1.0	1.0	-1.0	136.0	0.0333333333333	0.1333333333333	0.0666666666667	244.47505021095276	
7	200.53001618385315	pulse	0	t		-1.0	1.0	-1.0	136.0	0.0333333333333	0.1333333333333	0.0666666666667	246.07531833648682	
7	202.1302831172943	pulse	0	t		-1.0	1.0	-1.0	136.0	0.0333333333333	0.1333333333333	0.0666666666667	247.67558526992798	
7	203.54900097846985	response	0	b		-1.0	1.0	-1.0	136.0	0.0333333333333	0.1333333333333	0.0666666666667	249.09430313110352	
7	203.73044800758362	pulse	0	t		-1.0	1.0	-1.0	136.0	0.0333333333333	0.1333333333333	0.0666666666667	249.27575016021729	
7	205.33074712753296	pulse	0	t		-1.0	1.0	-1.0	136.0	0.0333333333333	0.1333333333333	0.0666666666667	250.87604928016663	
7	206.93089318275452	pulse	0	t		-1.0	1.0	-1.0	136.0	0.0333333333333	0.1333333333333	0.0666666666667	252.47619533538818	
7	207.03934407234192	response	0	b		-1.0	1.0	-1.0	136.0	0.0333333333333	0.1333333333333	0.0666666666667	252.5846462249756	
7	208.53125405311584	pulse	0	t		-1.0	1.0	-1.0	136.0	0.0333333333333	0.1333333333333	0.0666666666667	254.0765562057495	
8	208.56436800956726	stim	0		0	-1.0	1.0	-1.0	152.0	0.0333333333333	0.1333333333333	0.0666666666667	254.10967016220093	16.002382040023804
8	209.30817413330078	response	0	b		-1.0	1.0	-1.0	152.0	0.0333333333333	0.1333333333333	0.0666666666667	254.85347628593445	
8	210.13146114349365	pulse	0	t		-1.0	1.0	-1.0	152.0	0.0333333333333	0.1333333333333	0.0666666666667	255.67676329612732	
8	211.731693983078	pulse	0	t		-1.0	1.0	-1.0	152.0	0.0333333333333	0.1333333333333	0.0666666666667	257.27699613571167	
8	213.33185815811157	pulse	0	t		-1.0	1.0	-1.0	152.0	0.0333333333333	0.1333333333333	0.0666666666667	258.87716031074524	
8	213.89207410812378	response	0	b		-1.0	1.0	-1.0	152.0	0.0333333333333	0.1333333333333	0.0666666666667	259.43737626075745	
8	214.9322531223297	pulse	0	t		-1.0	1.0	-1.0	152.0	0.0333333333333	0.1333333333333	0.0666666666667	260.4775552749634	
8	216.53247117996216	pulse	0	t		-1.0	1.0	-1.0	152.0	0.0333333333333	0.1333333333333	0.0666666666667	262.0777733325958	
8	216.85918712615967	response	0	b		-1.0	1.0	-1.0	152.0	0.0333333333333	0.1333333333333	0.0666666666667	262.40448927879333	
8	218.13261818885803	pulse	0	t		-1.0	1.0	-1.0	152.0	0.0333333333333	0.1333333333333	0.0666666666667	263.6779203414917	
8	219.249507188797	response	0	b		-1.0	1.0	-1.0	152.0	0.0333333333333	0.1333333333333	0.0666666666667	264.79480934143066	
8	219.72633504867554	pulse	0	t		-1.0	1.0	-1.0	152.0	0.0333333333333	0.1333333333333	0.0666666666667	265.2716372013092	
8	221.32668709754944	pulse	0	t		-1.0	1.0	-1.0	152.0	0.0333333333333	0.1333333333333	0.0666666666667	266.8719892501831	
8	221.35815596580505	response	0	b		-1.0	1.0	-1.0	152.0	0.0333333333333	0.1333333333333	0.0666666666667	266.9034581184387	
8	222.92675304412842	pulse	0	t		-1.0	1.0	-1.0	152.0	0.0333333333333	0.1333333333333	0.0666666666667	268.4720551967621	
8	224.5270721912384	pulse	0	t		-1.0	1.0	-1.0	152.0	0.0333333333333	0.1333333333333	0.0666666666667	270.07237434387207	
9	224.56675004959106	stim	0		0	0.16666667	0.0666666666667	180.0	168.0	0.0333333333333	0.1333333333333	0.0666666666667	270.11205220222473	24.003602027893066
9	226.1265881061554	pulse	0	t		0.16666667	0.0666666666667	180.0	168.0	0.0333333333333	0.1333333333333	0.0666666666667	271.67189025878906	
9	227.25559210777283	response	0	b		0.16666667	0.0666666666667	180.0	168.0	0.0333333333333	0.1333333333333	0.0666666666667	272.8008942604065	
9	227.72659707069397	pulse	0	t		0.16666667	0.0666666666667	180.0	168.0	0.0333333333333	0.1333333333333	0.0666666666667	273.27189922332764	
9	229.32665514945984	pulse	0	t		0.16666667	0.0666666666667	180.0	168.0	0.0333333333333	0.1333333333333	0.0666666666667	274.8719573020935	
9	230.92664003372192	pulse	0	t		0.16666667	0.0666666666667	180.0	168.0	0.0333333333333	0.1333333333333	0.0666666666667	276.4719421863556	
9	231.5486671924591	response	0	b		0.16666667	0.0666666666667	180.0	168.0	0.0333333333333	0.1333333333333	0.0666666666667	277.0939693450928	
9	232.52659916877747	pulse	0	t		0.16666667	0.0666666666667	180.0	168.0	0.0333333333333	0.1333333333333	0.0666666666667	278.07190132141113	
9	234.12677597999573	pulse	0	t		0.16666667	0.0666666666667	180.0	168.0	0.0333333333333	0.1333333333333	0.0666666666667	279.6720781326294	
9	235.72669315338135	pulse	0	t		0.16666667	0.0666666666667	180.0	168.0	0.0333333333333	0.1333333333333	0.0666666666667	281.271995306015	
9	237.0667381286621	response	0	b		0.16666667	0.0666666666667	180.0	168.0	0.0333333333333	0.1333333333333	0.0666666666667	282.6120402812958	
9	237.32659912109375	pulse	0	t		0.16666667	0.0666666666667	180.0	168.0	0.0333333333333	0.1333333333333	0.0666666666667	282.8719012737274	
9	238.92671918869019	pulse	0	t		0.16666667	0.0666666666667	180.0	168.0	0.0333333333333	0.1333333333333	0.0666666666667	284.47202134132385	
9	239.56669402122498	response	0	b		0.16666667	0.0666666666667	180.0	168.0	0.0333333333333	0.1333333333333	0.0666666666667	285.11199617385864	
9	240.5267481803894	pulse	0	t		0.16666667	0.0666666666667	180.0	168.0	0.0333333333333	0.1333333333333	0.0666666666667	286.07205033302307	
9	242.12672996520996	pulse	0	t		0.16666667	0.0666666666667	180.0	168.0	0.0333333333333	0.1333333333333	0.0666666666667	287.6720321178436	
9	243.7268090248108	pulse	0	t		0.16666667	0.0666666666667	180.0	168.0	0.0333333333333	0.1333333333333	0.0666666666667	289.27211117744446	
9	245.3268051147461	pulse	0	t		0.16666667	0.0666666666667	180.0	168.0	0.0333333333333	0.1333333333333	0.0666666666667	290.87210726737976	
9	246.5038139820099	response	0	b		0.16666667	0.0666666666667	180.0	168.0	0.0333333333333	0.1333333333333	0.0666666666667	292.04911613464355	
9	246.9267451763153	pulse	0	t		0.16666667	0.0666666666667	180.0	168.0	0.0333333333333	0.1333333333333	0.0666666666667	292.472047328949	
9	248.52691006660461	pulse	0	t		0.16666667	0.0666666666667	180.0	168.0	0.0333333333333	0.1333333333333	0.0666666666667	294.0722122192383	
10	248.57035207748413	stim	0		0	0.16666667	0.0666666666667	90.0	192.0	0.0333333333333	0.1333333333333	0.0666666666667	294.1156542301178	23.995294094085693
10	249.56233501434326	response	0	b		0.16666667	0.0666666666667	90.0	192.0	0.0333333333333	0.1333333333333	0.0666666666667	295.10763716697693	
10	250.12691116333008	pulse	0	t		0.16666667	0.0666666666667	90.0	192.0	0.0333333333333	0.1333333333333	0.0666666666667	295.67221331596375	
10	251.72686505317688	pulse	0	t		0.16666667	0.0666666666667	90.0	192.0	0.0333333333333	0.1333333333333	0.0666666666667	297.27216720581055	
10	253.32691717147827	pulse	0	t		0.16666667	0.0666666666667	90.0	192.0	0.0333333333333	0.1333333333333	0.0666666666667	298.87221932411194	
10	254.92696905136108	pulse	0	t		0.16666667	0.0666666666667	90.0	192.0	0.0333333333333	0.1333333333333	0.0666666666667	300.47227120399475	
10	255.10577201843262	response	0	b		0.16666667	0.0666666666667	90.0	192.0	0.0333333333333	0.1333333333333	0.0666666666667	300.6510741710663	
10	256.52694606781006	pulse	0	t		0.16666667	0.0666666666667	90.0	192.0	0.0333333333333	0.1333333333333	0.0666666666667	302.0722482204437	
10	258.1269450187683	pulse	0	t		0.16666667	0.0666666666667	90.0	192.0	0.0333333333333	0.1333333333333	0.0666666666667	303.672247171402	
10	258.2608001232147	response	0	b		0.16666667	0.0666666666667	90.0	192.0	0.0333333333333	0.1333333333333	0.0666666666667	303.8061022758484	
10	259.72705006599426	pulse	0	t		0.16666667	0.0666666666667	90.0	192.0	0.0333333333333	0.1333333333333	0.0666666666667	305.27235221862793	
10	260.73902201652527	response	0	b		0.16666667	0.0666666666667	90.0	192.0	0.0333333333333	0.1333333333333	0.0666666666667	306.28432416915894	
10	261.32703399658203	pulse	0	t		0.16666667	0.0666666666667	90.0	192.0	0.0333333333333	0.1333333333333	0.0666666666667	306.8723361492157	
10	262.9060151576996	response	0	b		0.16666667	0.0666666666667	90.0	192.0	0.0333333333333	0.1333333333333	0.0666666666667	308.45131731033325	
10	262.9268319606781	pulse	0	t		0.16666667	0.0666666666667	90.0	192.0	0.0333333333333	0.1333333333333	0.0666666666667	308.47213411331177	
10	264.5270891189575	pulse	0	t		0.16666667	0.0666666666667	90.0	192.0	0.0333333333333	0.1333333333333	0.0666666666667	310.0723912715912	
10	265.7331039905548	response	0	b		0.16666667	0.0666666666667	90.0	192.0	0.0333333333333	0.1333333333333	0.0666666666667	311.2784061431885	
10	266.1269919872284	pulse	0	t		0.16666667	0.0666666666667	90.0	192.0	0.0333333333333	0.1333333333333	0.0666666666667	311.67229413986206	
10	267.7271089553833	pulse	0	t		0.16666667	0.0666666666667	90.0	192.0	0.0333333333333	0.1333333333333	0.0666666666667	313.27241110801697	
10	269.32714009284973	pulse	0	t		0.16666667	0.0666666666667	90.0	192.0	0.0333333333333	0.1333333333333	0.0666666666667	314.8724422454834	
10	270.9271550178528	pulse	0	t		0.16666667	0.0666666666667	90.0	192.0	0.0333333333333	0.1333333333333	0.0666666666667	316.47245717048645	
10	271.9081461429596	response	0	b		0.16666667	0.0666666666667	90.0	192.0	0.0333333333333	0.1333333333333	0.0666666666667	317.45344829559326	
10	272.5271010398865	pulse	0	t		0.16666667	0.0666666666667	90.0	192.0	0.0333333333333	0.1333333333333	0.0666666666667	318.07240319252014	
11	272.5656461715698	stim	0		0	-1.0	1.0	-1.0	216.0	0.0333333333333	0.1333333333333	0.0666666666667	318.1109483242035	16.00238800048828
11	274.13278913497925	pulse	0	t		-1.0	1.0	-1.0	216.0	0.0333333333333	0.1333333333333	0.0666666666667	319.6780912876129	
11	274.42429208755493	response	0	b		-1.0	1.0	-1.0	216.0	0.0333333333333	0.1333333333333	0.0666666666667	319.9695942401886	
11	275.7328290939331	pulse	0	t		-1.0	1.0	-1.0	216.0	0.0333333333333	0.1333333333333	0.0666666666667	321.2781312465668	
11	276.78302907943726	response	0	b		-1.0	1.0	-1.0	216.0	0.0333333333333	0.1333333333333	0.0666666666667	322.3283312320709	
11	277.3330810070038	pulse	0	t		-1.0	1.0	-1.0	216.0	0.0333333333333	0.1333333333333	0.0666666666667	322.87838315963745	
11	278.93344497680664	pulse	0	t		-1.0	1.0	-1.0	216.0	0.0333333333333	0.1333333333333	0.0666666666667	324.4787471294403	
11	279.7585480213165	response	0	b		-1.0	1.0	-1.0	216.0	0.0333333333333	0.1333333333333	0.0666666666667	325.3038501739502	
11	280.53366017341614	pulse	0	t		-1.0	1.0	-1.0	216.0	0.0333333333333	0.1333333333333	0.0666666666667	326.0789623260498	
11	282.1274380683899	pulse	0	t		-1.0	1.0	-1.0	216.0	0.0333333333333	0.1333333333333	0.0666666666667	327.67274022102356	
11	283.44440603256226	response	0	b		-1.0	1.0	-1.0	216.0	0.0333333333333	0.1333333333333	0.0666666666667	328.9897081851959	
11	283.7277400493622	pulse	0	t		-1.0	1.0	-1.0	216.0	0.0333333333333	0.1333333333333	0.0666666666667	329.27304220199585	
11	285.32792115211487	pulse	0	t		-1.0	1.0	-1.0	216.0	0.0333333333333	0.1333333333333	0.0666666666667	330.87322330474854	
11	286.92799711227417	pulse	0	t		-1.0	1.0	-1.0	216.0	0.0333333333333	0.1333333333333	0.0666666666667	332.47329926490784	
11	288.32821798324585	response	0	b		-1.0	1.0	-1.0	216.0	0.0333333333333	0.1333333333333	0.0666666666667	333.8735201358795	
11	288.5263500213623	pulse	0	t		-1.0	1.0	-1.0	216.0	0.0333333333333	0.1333333333333	0.0666666666667	334.071652173996	
12	288.5680341720581	stim	0		0	0.16666667	0.0666666666667	0.0	232.0	0.0333333333333	0.1333333333333	0.0666666666667	334.1133363246918	23.995271921157837
12	290.1263179779053	pulse	0	t		0.16666667	0.0666666666667	0.0	232.0	0.0333333333333	0.1333333333333	0.0666666666667	335.67162013053894	
12	291.226930141449	response	0	b		0.16666667	0.0666666666667	0.0	232.0	0.0333333333333	0.1333333333333	0.0666666666667	336.77223229408264	
12	291.7262580394745	pulse	0	t		0.16666667	0.0666666666667	0.0	232.0	0.0333333333333	0.1333333333333	0.0666666666667	337.27156019210815	
12	293.3263449668884	pulse	0	t		0.16666667	0.0666666666667	0.0	232.0	0.0333333333333	0.1333333333333	0.0666666666667	338.8716471195221	
12	294.9263770580292	pulse	0	t		0.16666667	0.0666666666667	0.0	232.0	0.0333333333333	0.1333333333333	0.0666666666667	340.47167921066284	
12	296.52638816833496	pulse	0	t		0.16666667	0.0666666666667	0.0	232.0	0.0333333333333	0.1333333333333	0.0666666666667	342.0716903209686	
12	298.12641501426697	pulse	0	t		0.16666667	0.0666666666667	0.0	232.0	0.0333333333333	0.1333333333333	0.0666666666667	343.67171716690063	
12	299.7263641357422	pulse	0	t		0.16666667	0.0666666666667	0.0	232.0	0.0333333333333	0.1333333333333	0.0666666666667	345.27166628837585	
12	301.32643604278564	pulse	0	t		0.16666667	0.0666666666667	0.0	232.0	0.0333333333333	0.1333333333333	0.0666666666667	346.8717381954193	
12	302.926470041275	pulse	0	t		0.16666667	0.0666666666667	0.0	232.0	0.0333333333333	0.1333333333333	0.0666666666667	348.4717721939087	
12	304.17046308517456	response	0	b		0.16666667	0.0666666666667	0.0	232.0	0.0333333333333	0.1333333333333	0.0666666666667	349.7157652378082	
12	304.52642011642456	pulse	0	t		0.16666667	0.0666666666667	0.0	232.0	0.0333333333333	0.1333333333333	0.0666666666667	350.0717222690582	
12	306.126513004303	pulse	0	t		0.16666667	0.0666666666667	0.0	232.0	0.0333333333333	0.1333333333333	0.0666666666667	351.67181515693665	
12	307.72648310661316	pulse	0	t		0.16666667	0.0666666666667	0.0	232.0	0.0333333333333	0.1333333333333	0.0666666666667	353.2717852592468	
12	308.1714360713959	response	0	b		0.16666667	0.0666666666667	0.0	232.0	0.0333333333333	0.1333333333333	0.0666666666667	353.71673822402954	
12	309.32648396492004	pulse	0	t		0.16666667	0.0666666666667	0.0	232.0	0.0333333333333	0.1333333333333	0.0666666666667	354.8717861175537	
12	310.53955602645874	response	0	b		0.16666667	0.0666666666667	0.0	232.0	0.0333333333333	0.1333333333333	0.0666666666667	356.0848581790924	
12	310.92647910118103	pulse	0	t		0.16666667	0.0666666666667	0.0	232.0	0.0333333333333	0.1333333333333	0.0666666666667	356.4717812538147	
12	312.5265619754791	pulse	0	t		0.16666667	0.0666666666667	0.0	232.0	0.0333333333333	0.1333333333333	0.0666666666667	358.0718641281128	
13	312.56330609321594	stim	0		0	0.16666667	0.0666666666667	270.0	256.0	0.0333333333333	0.1333333333333	0.0666666666667	358.1086082458496	24.003490924835205
13	314.1267170906067	pulse	0	t		0.16666667	0.0666666666667	270.0	256.0	0.0333333333333	0.1333333333333	0.0666666666667	359.67201924324036	
13	314.12951612472534	response	0	b		0.16666667	0.0666666666667	270.0	256.0	0.0333333333333	0.1333333333333	0.0666666666667	359.674818277359	
13	315.7266969680786	pulse	0	t		0.16666667	0.0666666666667	270.0	256.0	0.0333333333333	0.1333333333333	0.0666666666667	361.2719991207123	
13	317.3267111778259	pulse	0	t		0.16666667	0.0666666666667	270.0	256.0	0.0333333333333	0.1333333333333	0.0666666666667	362.8720133304596	
13	318.92672300338745	pulse	0	t		0.16666667	0.0666666666667	270.0	256.0	0.0333333333333	0.1333333333333	0.0666666666667	364.4720251560211	
13	320.5267221927643	pulse	0	t		0.16666667	0.0666666666667	270.0	256.0	0.0333333333333	0.1333333333333	0.0666666666667	366.07202434539795	
13	322.05869007110596	response	0	b		0.16666667	0.0666666666667	270.0	256.0	0.0333333333333	0.1333333333333	0.0666666666667	367.6039922237396	
13	322.12657713890076	pulse	0	t		0.16666667	0.0666666666667	270.0	256.0	0.0333333333333	0.1333333333333	0.0666666666667	367.6718792915344	
13	323.72672605514526	pulse	0	t		0.16666667	0.0666666666667	270.0	256.0	0.0333333333333	0.1333333333333	0.0666666666667	369.27202820777893	
13	325.3267590999603	pulse	0	t		0.16666667	0.0666666666667	270.0	256.0	0.0333333333333	0.1333333333333	0.0666666666667	370.872061252594	
13	326.926794052124	pulse	0	t		0.16666667	0.0666666666667	270.0	256.0	0.0333333333333	0.1333333333333	0.0666666666667	372.4720962047577	
13	327.7747070789337	response	0	b		0.16666667	0.0666666666667	270.0	256.0	0.0333333333333	0.1333333333333	0.0666666666667	373.3200092315674	
13	328.5267550945282	pulse	0	t		0.16666667	0.0666666666667	270.0	256.0	0.0333333333333	0.1333333333333	0.0666666666667	374.07205724716187	
13	330.12676215171814	pulse	0	t		0.16666667	0.0666666666667	270.0	256.0	0.0333333333333	0.1333333333333	0.0666666666667	375.6720643043518	
13	331.7268180847168	pulse	0	t		0.16666667	0.0666666666667	270.0	256.0	0.0333333333333	0.1333333333333	0.0666666666667	377.27212023735046	
13	333.3268389701843	pulse	0	t		0.16666667	0.0666666666667	270.0	256.0	0.0333333333333	0.1333333333333	0.0666666666667	378.872141122818	
13	333.51166796684265	response	0	b		0.16666667	0.0666666666667	270.0	256.0	0.0333333333333	0.1333333333333	0.0666666666667	379.0569701194763	
13	334.9268581867218	pulse	0	t		0.16666667	0.0666666666667	270.0	256.0	0.0333333333333	0.1333333333333	0.0666666666667	380.47216033935547	
13	336.52688217163086	pulse	0	t		0.16666667	0.0666666666667	270.0	256.0	0.0333333333333	0.1333333333333	0.0666666666667	382.0721843242645	
14	336.56679701805115	stim	0		0								382.1120991706848	24.83709216117859
14	338.12752318382263	pulse	0	t									383.6728253364563	
14	338.5191090106964	response	0	b									384.0644111633301	
14	339.7275869846344	pulse	0	t									385.27288913726807	
14	341.32767701148987	pulse	0	t									386.87297916412354	
14	341.7177391052246	response	0	b									387.2630412578583	
14	342.9279770851135	pulse	0	t									388.4732792377472	
14	343.96809005737305	response	0	b									389.5133922100067	
14	344.52837109565735	pulse	0	t									390.073673248291	
14	346.1286220550537	pulse	0	t									391.6739242076874	
14	346.59354996681213	response	0	b									392.1388521194458	
14	347.7269501686096	pulse	0	t									393.2722523212433	
14	349.1105501651764	response	0	b									394.65585231781006	
14	349.32714104652405	pulse	0	t									394.8724431991577	
14	350.9274649620056	pulse	0	t									396.4727671146393	
14	351.8442289829254	response	0	b									397.3895311355591	
14	352.5277581214905	pulse	0	t									398.07306027412415	
14	354.1278569698334	pulse	0	t									399.67315912246704	
14	354.3113169670105	response	0	b									399.85661911964417	
14	355.7281720638275	pulse	0	t									401.2734742164612	
14	357.32835507392883	pulse	0	t									402.8736572265625	
14	358.9286410808563	pulse	0	t									404.47394323349	
14	360.5288550853729	pulse	0	t									406.0741572380066	
