trial_nr	onset	event_type	phase	response	nr_frames	bar_width	bar_refresh_time	bar_direction	start_time	bar_blank_duration	bar_blank_interval	bg_stim_refresh_time	onset_abs	duration
0	0.1914989948272705	stim	0		0								16.00014901161194	64.36795997619629
0	64.55135893821716	response	0	space									80.36000895500183	
1	64.55945897102356	stim	0		0								80.36810898780823	38.434277057647705
1	102.97375988960266	pulse	0	t									118.78240990638733	
1	102.99373602867126	stim	1		0								118.80238604545593	0.0008559226989746094
1	102.99459195137024	stim	0		0								118.80324196815491	23.999174118041992
1	104.56563401222229	pulse	0	t									120.37428402900696	
1	106.06575608253479	response	0	b									121.87440609931946	
1	106.1657600402832	pulse	0	t									121.97441005706787	
1	107.76601505279541	pulse	0	t									123.57466506958008	
1	109.36629509925842	pulse	0	t									125.17494511604309	
1	109.75147008895874	response	0	b									125.56012010574341	
1	110.96662497520447	pulse	0	t									126.77527499198914	
1	112.48347306251526	response	0	b									128.29212307929993	
1	112.56665992736816	pulse	0	t									128.37530994415283	
1	114.16694808006287	pulse	0	t									129.97559809684753	
1	114.93363189697266	response	0	b									130.74228191375732	
1	115.76716899871826	pulse	0	t									131.57581901550293	
1	117.20908188819885	response	0	b									133.01773190498352	
1	117.36743688583374	pulse	0	t									133.1760869026184	
1	118.96767401695251	pulse	0	t									134.77632403373718	
1	120.40306997299194	response	0	b									136.2117199897766	
1	120.56151008605957	pulse	0	t									136.37016010284424	
1	122.16164588928223	pulse	0	t									137.9702959060669	
1	123.05165600776672	response	0	b									138.8603060245514	
1	123.76194190979004	pulse	0	t									139.5705919265747	
1	125.36210608482361	pulse	0	t									141.17075610160828	
1	126.96248006820679	pulse	0	t									142.77113008499146	
2	126.99376606941223	stim	0		0	0.16666667	0.0666666666667	270.0	24.0	0.0333333333333	0.1333333333333	0.0666666666667	142.8024160861969	23.995193004608154
2	128.5616910457611	pulse	0	t		0.16666667	0.0666666666667	270.0	24.0	0.0333333333333	0.1333333333333	0.0666666666667	144.37034106254578	
2	129.60672211647034	response	0	b		0.16666667	0.0666666666667	270.0	24.0	0.0333333333333	0.1333333333333	0.0666666666667	145.415372133255	
2	130.161700963974	pulse	0	t		0.16666667	0.0666666666667	270.0	24.0	0.0333333333333	0.1333333333333	0.0666666666667	145.97035098075867	
2	131.76176404953003	pulse	0	t		0.16666667	0.0666666666667	270.0	24.0	0.0333333333333	0.1333333333333	0.0666666666667	147.5704140663147	
2	133.0407829284668	response	0	b		0.16666667	0.0666666666667	270.0	24.0	0.0333333333333	0.1333333333333	0.0666666666667	148.84943294525146	
2	133.3617548942566	pulse	0	t		0.16666667	0.0666666666667	270.0	24.0	0.0333333333333	0.1333333333333	0.0666666666667	149.17040491104126	
2	134.9618420600891	pulse	0	t		0.16666667	0.0666666666667	270.0	24.0	0.0333333333333	0.1333333333333	0.0666666666667	150.77049207687378	
2	135.62883710861206	response	0	b		0.16666667	0.0666666666667	270.0	24.0	0.0333333333333	0.1333333333333	0.0666666666667	151.43748712539673	
2	136.56184196472168	pulse	0	t		0.16666667	0.0666666666667	270.0	24.0	0.0333333333333	0.1333333333333	0.0666666666667	152.37049198150635	
2	138.1618790626526	pulse	0	t		0.16666667	0.0666666666667	270.0	24.0	0.0333333333333	0.1333333333333	0.0666666666667	153.97052907943726	
2	139.7619650363922	pulse	0	t		0.16666667	0.0666666666667	270.0	24.0	0.0333333333333	0.1333333333333	0.0666666666667	155.57061505317688	
2	139.90085911750793	response	0	b		0.16666667	0.0666666666667	270.0	24.0	0.0333333333333	0.1333333333333	0.0666666666667	155.7095091342926	
2	141.36187505722046	pulse	0	t		0.16666667	0.0666666666667	270.0	24.0	0.0333333333333	0.1333333333333	0.0666666666667	157.17052507400513	
2	141.95388007164001	response	0	b		0.16666667	0.0666666666667	270.0	24.0	0.0333333333333	0.1333333333333	0.0666666666667	157.76253008842468	
2	142.96187210083008	pulse	0	t		0.16666667	0.0666666666667	270.0	24.0	0.0333333333333	0.1333333333333	0.0666666666667	158.77052211761475	
2	144.5619249343872	pulse	0	t		0.16666667	0.0666666666667	270.0	24.0	0.0333333333333	0.1333333333333	0.0666666666667	160.37057495117188	
2	146.16198205947876	pulse	0	t		0.16666667	0.0666666666667	270.0	24.0	0.0333333333333	0.1333333333333	0.0666666666667	161.97063207626343	
2	147.76196599006653	pulse	0	t		0.16666667	0.0666666666667	270.0	24.0	0.0333333333333	0.1333333333333	0.0666666666667	163.5706160068512	
2	148.12791109085083	response	0	b		0.16666667	0.0666666666667	270.0	24.0	0.0333333333333	0.1333333333333	0.0666666666667	163.9365611076355	
2	149.36201095581055	pulse	0	t		0.16666667	0.0666666666667	270.0	24.0	0.0333333333333	0.1333333333333	0.0666666666667	165.17066097259521	
2	150.96197199821472	pulse	0	t		0.16666667	0.0666666666667	270.0	24.0	0.0333333333333	0.1333333333333	0.0666666666667	166.7706220149994	
3	150.98895907402039	stim	0		0	0.16666667	0.0666666666667	0.0	48.0	0.0333333333333	0.1333333333333	0.0666666666667	166.79760909080505	24.003695011138916
3	151.28401398658752	response	0	b		0.16666667	0.0666666666667	0.0	48.0	0.0333333333333	0.1333333333333	0.0666666666667	167.0926640033722	
3	152.56199288368225	pulse	0	t		0.16666667	0.0666666666667	0.0	48.0	0.0333333333333	0.1333333333333	0.0666666666667	168.37064290046692	
3	153.50005197525024	response	0	b		0.16666667	0.0666666666667	0.0	48.0	0.0333333333333	0.1333333333333	0.0666666666667	169.3087019920349	
3	154.16205191612244	pulse	0	t		0.16666667	0.0666666666667	0.0	48.0	0.0333333333333	0.1333333333333	0.0666666666667	169.9707019329071	
3	155.76209688186646	pulse	0	t		0.16666667	0.0666666666667	0.0	48.0	0.0333333333333	0.1333333333333	0.0666666666667	171.57074689865112	
3	157.36212706565857	pulse	0	t		0.16666667	0.0666666666667	0.0	48.0	0.0333333333333	0.1333333333333	0.0666666666667	173.17077708244324	
3	157.48796892166138	response	0	b		0.16666667	0.0666666666667	0.0	48.0	0.0333333333333	0.1333333333333	0.0666666666667	173.29661893844604	
3	158.9621570110321	pulse	0	t		0.16666667	0.0666666666667	0.0	48.0	0.0333333333333	0.1333333333333	0.0666666666667	174.77080702781677	
3	160.56211709976196	pulse	0	t		0.16666667	0.0666666666667	0.0	48.0	0.0333333333333	0.1333333333333	0.0666666666667	176.37076711654663	
3	161.9591588973999	response	0	b		0.16666667	0.0666666666667	0.0	48.0	0.0333333333333	0.1333333333333	0.0666666666667	177.76780891418457	
3	162.1621150970459	pulse	0	t		0.16666667	0.0666666666667	0.0	48.0	0.0333333333333	0.1333333333333	0.0666666666667	177.97076511383057	
3	163.76217889785767	pulse	0	t		0.16666667	0.0666666666667	0.0	48.0	0.0333333333333	0.1333333333333	0.0666666666667	179.57082891464233	
3	165.36218905448914	pulse	0	t		0.16666667	0.0666666666667	0.0	48.0	0.0333333333333	0.1333333333333	0.0666666666667	181.1708390712738	
3	166.96223211288452	pulse	0	t		0.16666667	0.0666666666667	0.0	48.0	0.0333333333333	0.1333333333333	0.0666666666667	182.7708821296692	
3	168.56226706504822	pulse	0	t		0.16666667	0.0666666666667	0.0	48.0	0.0333333333333	0.1333333333333	0.0666666666667	184.37091708183289	
3	169.15523505210876	response	0	b		0.16666667	0.0666666666667	0.0	48.0	0.0333333333333	0.1333333333333	0.0666666666667	184.96388506889343	
3	170.16222310066223	pulse	0	t		0.16666667	0.0666666666667	0.0	48.0	0.0333333333333	0.1333333333333	0.0666666666667	185.9708731174469	
3	171.76229405403137	pulse	0	t		0.16666667	0.0666666666667	0.0	48.0	0.0333333333333	0.1333333333333	0.0666666666667	187.57094407081604	
3	173.36231207847595	pulse	0	t		0.16666667	0.0666666666667	0.0	48.0	0.0333333333333	0.1333333333333	0.0666666666667	189.17096209526062	
3	174.96232509613037	pulse	0	t		0.16666667	0.0666666666667	0.0	48.0	0.0333333333333	0.1333333333333	0.0666666666667	190.77097511291504	
4	174.9926540851593	stim	0		0	-1.0	1.0	-1.0	72.0	0.0333333333333	0.1333333333333	0.0666666666667	190.80130410194397	16.002259969711304
4	176.56800389289856	pulse	0	t		-1.0	1.0	-1.0	72.0	0.0333333333333	0.1333333333333	0.0666666666667	192.37665390968323	
4	178.16817688941956	pulse	0	t		-1.0	1.0	-1.0	72.0	0.0333333333333	0.1333333333333	0.0666666666667	193.97682690620422	
4	178.88501405715942	response	0	b		-1.0	1.0	-1.0	72.0	0.0333333333333	0.1333333333333	0.0666666666667	194.6936640739441	
4	179.7683560848236	pulse	0	t		-1.0	1.0	-1.0	72.0	0.0333333333333	0.1333333333333	0.0666666666667	195.57700610160828	
4	181.2437551021576	response	0	b		-1.0	1.0	-1.0	72.0	0.0333333333333	0.1333333333333	0.0666666666667	197.05240511894226	
4	181.3687388896942	pulse	0	t		-1.0	1.0	-1.0	72.0	0.0333333333333	0.1333333333333	0.0666666666667	197.17738890647888	
4	182.96235704421997	pulse	0	t		-1.0	1.0	-1.0	72.0	0.0333333333333	0.1333333333333	0.0666666666667	198.77100706100464	
4	184.56268310546875	pulse	0	t		-1.0	1.0	-1.0	72.0	0.0333333333333	0.1333333333333	0.0666666666667	200.37133312225342	
4	185.47755694389343	response	0	b		-1.0	1.0	-1.0	72.0	0.0333333333333	0.1333333333333	0.0666666666667	201.2862069606781	
4	186.16287302970886	pulse	0	t		-1.0	1.0	-1.0	72.0	0.0333333333333	0.1333333333333	0.0666666666667	201.97152304649353	
4	187.76321697235107	pulse	0	t		-1.0	1.0	-1.0	72.0	0.0333333333333	0.1333333333333	0.0666666666667	203.57186698913574	
4	188.66974401474	response	0	b		-1.0	1.0	-1.0	72.0	0.0333333333333	0.1333333333333	0.0666666666667	204.47839403152466	
4	189.3633849620819	pulse	0	t		-1.0	1.0	-1.0	72.0	0.0333333333333	0.1333333333333	0.0666666666667	205.17203497886658	
4	190.9635889530182	pulse	0	t		-1.0	1.0	-1.0	72.0	0.0333333333333	0.1333333333333	0.0666666666667	206.77223896980286	
5	190.9949140548706	stim	0		0	0.16666667	0.0666666666667	90.0	88.0	0.0333333333333	0.1333333333333	0.0666666666667	206.80356407165527	23.995224952697754
5	191.36246490478516	response	0	b		0.16666667	0.0666666666667	90.0	88.0	0.0333333333333	0.1333333333333	0.0666666666667	207.17111492156982	
5	192.56249403953552	pulse	0	t		0.16666667	0.0666666666667	90.0	88.0	0.0333333333333	0.1333333333333	0.0666666666667	208.3711440563202	
5	194.16251611709595	pulse	0	t		0.16666667	0.0666666666667	90.0	88.0	0.0333333333333	0.1333333333333	0.0666666666667	209.97116613388062	
5	194.39558601379395	response	0	b		0.16666667	0.0666666666667	90.0	88.0	0.0333333333333	0.1333333333333	0.0666666666667	210.2042360305786	
5	195.76251006126404	pulse	0	t		0.16666667	0.0666666666667	90.0	88.0	0.0333333333333	0.1333333333333	0.0666666666667	211.5711600780487	
5	197.36253595352173	pulse	0	t		0.16666667	0.0666666666667	90.0	88.0	0.0333333333333	0.1333333333333	0.0666666666667	213.1711859703064	
5	198.9625380039215	pulse	0	t		0.16666667	0.0666666666667	90.0	88.0	0.0333333333333	0.1333333333333	0.0666666666667	214.77118802070618	
5	200.5626130104065	pulse	0	t		0.16666667	0.0666666666667	90.0	88.0	0.0333333333333	0.1333333333333	0.0666666666667	216.37126302719116	
5	202.16262197494507	pulse	0	t		0.16666667	0.0666666666667	90.0	88.0	0.0333333333333	0.1333333333333	0.0666666666667	217.97127199172974	
5	203.76265597343445	pulse	0	t		0.16666667	0.0666666666667	90.0	88.0	0.0333333333333	0.1333333333333	0.0666666666667	219.57130599021912	
5	204.31932401657104	response	0	b		0.16666667	0.0666666666667	90.0	88.0	0.0333333333333	0.1333333333333	0.0666666666667	220.1279740333557	
5	205.36266994476318	pulse	0	t		0.16666667	0.0666666666667	90.0	88.0	0.0333333333333	0.1333333333333	0.0666666666667	221.17131996154785	
5	206.9626169204712	pulse	0	t		0.16666667	0.0666666666667	90.0	88.0	0.0333333333333	0.1333333333333	0.0666666666667	222.77126693725586	
5	208.5627191066742	pulse	0	t		0.16666667	0.0666666666667	90.0	88.0	0.0333333333333	0.1333333333333	0.0666666666667	224.37136912345886	
5	210.1617250442505	pulse	0	t		0.16666667	0.0666666666667	90.0	88.0	0.0333333333333	0.1333333333333	0.0666666666667	225.97037506103516	
5	211.76175999641418	pulse	0	t		0.16666667	0.0666666666667	90.0	88.0	0.0333333333333	0.1333333333333	0.0666666666667	227.57041001319885	
5	212.5617480278015	response	0	b		0.16666667	0.0666666666667	90.0	88.0	0.0333333333333	0.1333333333333	0.0666666666667	228.37039804458618	
5	213.3617880344391	pulse	0	t		0.16666667	0.0666666666667	90.0	88.0	0.0333333333333	0.1333333333333	0.0666666666667	229.17043805122375	
5	214.96178889274597	pulse	0	t		0.16666667	0.0666666666667	90.0	88.0	0.0333333333333	0.1333333333333	0.0666666666667	230.77043890953064	
6	214.99013900756836	stim	0		0	0.16666667	0.0666666666667	180.0	112.0	0.0333333333333	0.1333333333333	0.0666666666667	230.79878902435303	24.00361704826355
6	216.56188797950745	pulse	0	t		0.16666667	0.0666666666667	180.0	112.0	0.0333333333333	0.1333333333333	0.0666666666667	232.37053799629211	
6	217.22781491279602	response	0	b		0.16666667	0.0666666666667	180.0	112.0	0.0333333333333	0.1333333333333	0.0666666666667	233.0364649295807	
6	218.16183400154114	pulse	0	t		0.16666667	0.0666666666667	180.0	112.0	0.0333333333333	0.1333333333333	0.0666666666667	233.9704840183258	
6	219.33188199996948	response	0	b		0.16666667	0.0666666666667	180.0	112.0	0.0333333333333	0.1333333333333	0.0666666666667	235.14053201675415	
6	219.76177406311035	pulse	0	t		0.16666667	0.0666666666667	180.0	112.0	0.0333333333333	0.1333333333333	0.0666666666667	235.57042407989502	
6	221.36186599731445	pulse	0	t		0.16666667	0.0666666666667	180.0	112.0	0.0333333333333	0.1333333333333	0.0666666666667	237.17051601409912	
6	222.96192407608032	pulse	0	t		0.16666667	0.0666666666667	180.0	112.0	0.0333333333333	0.1333333333333	0.0666666666667	238.770574092865	
6	224.35393500328064	response	0	b		0.16666667	0.0666666666667	180.0	112.0	0.0333333333333	0.1333333333333	0.0666666666667	240.1625850200653	
6	224.56185388565063	pulse	0	t		0.16666667	0.0666666666667	180.0	112.0	0.0333333333333	0.1333333333333	0.0666666666667	240.3705039024353	
6	226.16194701194763	pulse	0	t		0.16666667	0.0666666666667	180.0	112.0	0.0333333333333	0.1333333333333	0.0666666666667	241.9705970287323	
6	226.81388807296753	response	0	b		0.16666667	0.0666666666667	180.0	112.0	0.0333333333333	0.1333333333333	0.0666666666667	242.6225380897522	
6	227.7619330883026	pulse	0	t		0.16666667	0.0666666666667	180.0	112.0	0.0333333333333	0.1333333333333	0.0666666666667	243.57058310508728	
6	229.3619990348816	pulse	0	t		0.16666667	0.0666666666667	180.0	112.0	0.0333333333333	0.1333333333333	0.0666666666667	245.17064905166626	
6	230.9619960784912	pulse	0	t		0.16666667	0.0666666666667	180.0	112.0	0.0333333333333	0.1333333333333	0.0666666666667	246.77064609527588	
6	232.14996910095215	response	0	b		0.16666667	0.0666666666667	180.0	112.0	0.0333333333333	0.1333333333333	0.0666666666667	247.95861911773682	
6	232.5619649887085	pulse	0	t		0.16666667	0.0666666666667	180.0	112.0	0.0333333333333	0.1333333333333	0.0666666666667	248.37061500549316	
6	234.16201901435852	pulse	0	t		0.16666667	0.0666666666667	180.0	112.0	0.0333333333333	0.1333333333333	0.0666666666667	249.9706690311432	
6	234.73701310157776	response	0	b		0.16666667	0.0666666666667	180.0	112.0	0.0333333333333	0.1333333333333	0.0666666666667	250.54566311836243	
6	235.76205706596375	pulse	0	t		0.16666667	0.0666666666667	180.0	112.0	0.0333333333333	0.1333333333333	0.0666666666667	251.5707070827484	
6	237.36202907562256	pulse	0	t		0.16666667	0.0666666666667	180.0	112.0	0.0333333333333	0.1333333333333	0.0666666666667	253.17067909240723	
6	238.96207094192505	pulse	0	t		0.16666667	0.0666666666667	180.0	112.0	0.0333333333333	0.1333333333333	0.0666666666667	254.77072095870972	
7	238.9937560558319	stim	0		0	-1.0	1.0	-1.0	136.0	0.0333333333333	0.1333333333333	0.0666666666667	254.80240607261658	16.002392053604126
7	240.56272101402283	pulse	0	t		-1.0	1.0	-1.0	136.0	0.0333333333333	0.1333333333333	0.0666666666667	256.3713710308075	
7	242.16309690475464	pulse	0	t		-1.0	1.0	-1.0	136.0	0.0333333333333	0.1333333333333	0.0666666666667	257.9717469215393	
7	242.77787709236145	response	0	b		-1.0	1.0	-1.0	136.0	0.0333333333333	0.1333333333333	0.0666666666667	258.5865271091461	
7	243.7632429599762	pulse	0	t		-1.0	1.0	-1.0	136.0	0.0333333333333	0.1333333333333	0.0666666666667	259.57189297676086	
7	245.36352396011353	pulse	0	t		-1.0	1.0	-1.0	136.0	0.0333333333333	0.1333333333333	0.0666666666667	261.1721739768982	
7	246.9638409614563	pulse	0	t		-1.0	1.0	-1.0	136.0	0.0333333333333	0.1333333333333	0.0666666666667	262.77249097824097	
7	247.83060002326965	response	0	b		-1.0	1.0	-1.0	136.0	0.0333333333333	0.1333333333333	0.0666666666667	263.6392500400543	
7	248.5639181137085	pulse	0	t		-1.0	1.0	-1.0	136.0	0.0333333333333	0.1333333333333	0.0666666666667	264.37256813049316	
7	250.16232204437256	pulse	0	t		-1.0	1.0	-1.0	136.0	0.0333333333333	0.1333333333333	0.0666666666667	265.9709720611572	
7	251.00594210624695	response	0	b		-1.0	1.0	-1.0	136.0	0.0333333333333	0.1333333333333	0.0666666666667	266.8145921230316	
7	251.76242208480835	pulse	0	t		-1.0	1.0	-1.0	136.0	0.0333333333333	0.1333333333333	0.0666666666667	267.571072101593	
7	253.22097396850586	response	0	b		-1.0	1.0	-1.0	136.0	0.0333333333333	0.1333333333333	0.0666666666667	269.0296239852905	
7	253.36277294158936	pulse	0	t		-1.0	1.0	-1.0	136.0	0.0333333333333	0.1333333333333	0.0666666666667	269.171422958374	
7	254.9630310535431	pulse	0	t		-1.0	1.0	-1.0	136.0	0.0333333333333	0.1333333333333	0.0666666666667	270.77168107032776	
8	254.99614810943604	stim	0		0	-1.0	1.0	-1.0	152.0	0.0333333333333	0.1333333333333	0.0666666666667	270.8047981262207	16.002410888671875
8	256.5632040500641	pulse	0	t		-1.0	1.0	-1.0	152.0	0.0333333333333	0.1333333333333	0.0666666666667	272.37185406684875	
8	258.1634500026703	pulse	0	t		-1.0	1.0	-1.0	152.0	0.0333333333333	0.1333333333333	0.0666666666667	273.97210001945496	
8	259.76365995407104	pulse	0	t		-1.0	1.0	-1.0	152.0	0.0333333333333	0.1333333333333	0.0666666666667	275.5723099708557	
8	261.3639130592346	pulse	0	t		-1.0	1.0	-1.0	152.0	0.0333333333333	0.1333333333333	0.0666666666667	277.1725630760193	
8	261.3971788883209	response	0	b		-1.0	1.0	-1.0	152.0	0.0333333333333	0.1333333333333	0.0666666666667	277.2058289051056	
8	262.96408700942993	pulse	0	t		-1.0	1.0	-1.0	152.0	0.0333333333333	0.1333333333333	0.0666666666667	278.7727370262146	
8	264.56441497802734	pulse	0	t		-1.0	1.0	-1.0	152.0	0.0333333333333	0.1333333333333	0.0666666666667	280.373064994812	
8	266.16462802886963	pulse	0	t		-1.0	1.0	-1.0	152.0	0.0333333333333	0.1333333333333	0.0666666666667	281.9732780456543	
8	267.7648730278015	pulse	0	t		-1.0	1.0	-1.0	152.0	0.0333333333333	0.1333333333333	0.0666666666667	283.5735230445862	
8	269.36529088020325	pulse	0	t		-1.0	1.0	-1.0	152.0	0.0333333333333	0.1333333333333	0.0666666666667	285.1739408969879	
8	270.2653388977051	response	0	b		-1.0	1.0	-1.0	152.0	0.0333333333333	0.1333333333333	0.0666666666667	286.07398891448975	
8	270.9653639793396	pulse	0	t		-1.0	1.0	-1.0	152.0	0.0333333333333	0.1333333333333	0.0666666666667	286.77401399612427	
9	270.9985589981079	stim	0		0	0.16666667	0.0666666666667	180.0	168.0	0.0333333333333	0.1333333333333	0.0666666666667	286.8072090148926	23.995280027389526
9	272.5624330043793	pulse	0	t		0.16666667	0.0666666666667	180.0	168.0	0.0333333333333	0.1333333333333	0.0666666666667	288.37108302116394	
9	274.1624689102173	pulse	0	t		0.16666667	0.0666666666667	180.0	168.0	0.0333333333333	0.1333333333333	0.0666666666667	289.97111892700195	
9	275.7625150680542	pulse	0	t		0.16666667	0.0666666666667	180.0	168.0	0.0333333333333	0.1333333333333	0.0666666666667	291.57116508483887	
9	277.3625168800354	pulse	0	t		0.16666667	0.0666666666667	180.0	168.0	0.0333333333333	0.1333333333333	0.0666666666667	293.17116689682007	
9	278.9624979496002	pulse	0	t		0.16666667	0.0666666666667	180.0	168.0	0.0333333333333	0.1333333333333	0.0666666666667	294.7711479663849	
9	280.41553592681885	response	0	b		0.16666667	0.0666666666667	180.0	168.0	0.0333333333333	0.1333333333333	0.0666666666667	296.2241859436035	
9	280.56242299079895	pulse	0	t		0.16666667	0.0666666666667	180.0	168.0	0.0333333333333	0.1333333333333	0.0666666666667	296.3710730075836	
9	282.16255593299866	pulse	0	t		0.16666667	0.0666666666667	180.0	168.0	0.0333333333333	0.1333333333333	0.0666666666667	297.9712059497833	
9	283.733628988266	response	0	b		0.16666667	0.0666666666667	180.0	168.0	0.0333333333333	0.1333333333333	0.0666666666667	299.54227900505066	
9	283.76239800453186	pulse	0	t		0.16666667	0.0666666666667	180.0	168.0	0.0333333333333	0.1333333333333	0.0666666666667	299.5710480213165	
9	285.362606048584	pulse	0	t		0.16666667	0.0666666666667	180.0	168.0	0.0333333333333	0.1333333333333	0.0666666666667	301.17125606536865	
9	286.96261405944824	pulse	0	t		0.16666667	0.0666666666667	180.0	168.0	0.0333333333333	0.1333333333333	0.0666666666667	302.7712640762329	
9	288.5626211166382	pulse	0	t		0.16666667	0.0666666666667	180.0	168.0	0.0333333333333	0.1333333333333	0.0666666666667	304.37127113342285	
9	288.78046703338623	response	0	b		0.16666667	0.0666666666667	180.0	168.0	0.0333333333333	0.1333333333333	0.0666666666667	304.5891170501709	
9	290.1626319885254	pulse	0	t		0.16666667	0.0666666666667	180.0	168.0	0.0333333333333	0.1333333333333	0.0666666666667	305.97128200531006	
9	291.76277589797974	pulse	0	t		0.16666667	0.0666666666667	180.0	168.0	0.0333333333333	0.1333333333333	0.0666666666667	307.5714259147644	
9	293.3627779483795	pulse	0	t		0.16666667	0.0666666666667	180.0	168.0	0.0333333333333	0.1333333333333	0.0666666666667	309.1714279651642	
9	294.9627740383148	pulse	0	t		0.16666667	0.0666666666667	180.0	168.0	0.0333333333333	0.1333333333333	0.0666666666667	310.7714240550995	
10	294.99383902549744	stim	0		0	0.16666667	0.0666666666667	90.0	192.0	0.0333333333333	0.1333333333333	0.0666666666667	310.8024890422821	23.995305061340332
10	296.0076959133148	response	0	b		0.16666667	0.0666666666667	90.0	192.0	0.0333333333333	0.1333333333333	0.0666666666667	311.8163459300995	
10	296.56265091896057	pulse	0	t		0.16666667	0.0666666666667	90.0	192.0	0.0333333333333	0.1333333333333	0.0666666666667	312.37130093574524	
10	298.16293597221375	pulse	0	t		0.16666667	0.0666666666667	90.0	192.0	0.0333333333333	0.1333333333333	0.0666666666667	313.9715859889984	
10	299.7628769874573	pulse	0	t		0.16666667	0.0666666666667	90.0	192.0	0.0333333333333	0.1333333333333	0.0666666666667	315.57152700424194	
10	300.5769600868225	response	0	b		0.16666667	0.0666666666667	90.0	192.0	0.0333333333333	0.1333333333333	0.0666666666667	316.3856101036072	
10	301.36292600631714	pulse	0	t		0.16666667	0.0666666666667	90.0	192.0	0.0333333333333	0.1333333333333	0.0666666666667	317.1715760231018	
10	302.9619619846344	pulse	0	t		0.16666667	0.0666666666667	90.0	192.0	0.0333333333333	0.1333333333333	0.0666666666667	318.77061200141907	
10	303.5809419155121	response	0	b		0.16666667	0.0666666666667	90.0	192.0	0.0333333333333	0.1333333333333	0.0666666666667	319.38959193229675	
10	304.56298995018005	pulse	0	t		0.16666667	0.0666666666667	90.0	192.0	0.0333333333333	0.1333333333333	0.0666666666667	320.3716399669647	
10	306.1620190143585	pulse	0	t		0.16666667	0.0666666666667	90.0	192.0	0.0333333333333	0.1333333333333	0.0666666666667	321.9706690311432	
10	307.7619969844818	pulse	0	t		0.16666667	0.0666666666667	90.0	192.0	0.0333333333333	0.1333333333333	0.0666666666667	323.5706470012665	
10	309.3619830608368	pulse	0	t		0.16666667	0.0666666666667	90.0	192.0	0.0333333333333	0.1333333333333	0.0666666666667	325.17063307762146	
10	310.96205592155457	pulse	0	t		0.16666667	0.0666666666667	90.0	192.0	0.0333333333333	0.1333333333333	0.0666666666667	326.77070593833923	
10	312.56209993362427	pulse	0	t		0.16666667	0.0666666666667	90.0	192.0	0.0333333333333	0.1333333333333	0.0666666666667	328.37074995040894	
10	312.8819739818573	response	0	b		0.16666667	0.0666666666667	90.0	192.0	0.0333333333333	0.1333333333333	0.0666666666667	328.69062399864197	
10	314.16210293769836	pulse	0	t		0.16666667	0.0666666666667	90.0	192.0	0.0333333333333	0.1333333333333	0.0666666666667	329.97075295448303	
10	315.7621359825134	pulse	0	t		0.16666667	0.0666666666667	90.0	192.0	0.0333333333333	0.1333333333333	0.0666666666667	331.5707859992981	
10	315.98753690719604	response	0	b		0.16666667	0.0666666666667	90.0	192.0	0.0333333333333	0.1333333333333	0.0666666666667	331.7961869239807	
10	317.3621520996094	pulse	0	t		0.16666667	0.0666666666667	90.0	192.0	0.0333333333333	0.1333333333333	0.0666666666667	333.17080211639404	
10	318.96210193634033	pulse	0	t		0.16666667	0.0666666666667	90.0	192.0	0.0333333333333	0.1333333333333	0.0666666666667	334.770751953125	
11	318.98914408683777	stim	0		0	-1.0	1.0	-1.0	216.0	0.0333333333333	0.1333333333333	0.0666666666667	334.79779410362244	16.010615825653076
11	320.18099904060364	response	0	b		-1.0	1.0	-1.0	216.0	0.0333333333333	0.1333333333333	0.0666666666667	335.9896490573883	
11	320.56438398361206	pulse	0	t		-1.0	1.0	-1.0	216.0	0.0333333333333	0.1333333333333	0.0666666666667	336.37303400039673	
11	322.16470289230347	pulse	0	t		-1.0	1.0	-1.0	216.0	0.0333333333333	0.1333333333333	0.0666666666667	337.97335290908813	
11	323.76493406295776	pulse	0	t		-1.0	1.0	-1.0	216.0	0.0333333333333	0.1333333333333	0.0666666666667	339.57358407974243	
11	325.3651030063629	pulse	0	t		-1.0	1.0	-1.0	216.0	0.0333333333333	0.1333333333333	0.0666666666667	341.1737530231476	
11	326.6236159801483	response	0	b		-1.0	1.0	-1.0	216.0	0.0333333333333	0.1333333333333	0.0666666666667	342.432265996933	
11	326.9654378890991	pulse	0	t		-1.0	1.0	-1.0	216.0	0.0333333333333	0.1333333333333	0.0666666666667	342.7740879058838	
11	328.56569600105286	pulse	0	t		-1.0	1.0	-1.0	216.0	0.0333333333333	0.1333333333333	0.0666666666667	344.3743460178375	
11	330.16586208343506	pulse	0	t		-1.0	1.0	-1.0	216.0	0.0333333333333	0.1333333333333	0.0666666666667	345.9745121002197	
11	331.7659990787506	pulse	0	t		-1.0	1.0	-1.0	216.0	0.0333333333333	0.1333333333333	0.0666666666667	347.5746490955353	
11	332.0160319805145	response	0	b		-1.0	1.0	-1.0	216.0	0.0333333333333	0.1333333333333	0.0666666666667	347.8246819972992	
11	333.3663399219513	pulse	0	t		-1.0	1.0	-1.0	216.0	0.0333333333333	0.1333333333333	0.0666666666667	349.17498993873596	
11	334.9666268825531	pulse	0	t		-1.0	1.0	-1.0	216.0	0.0333333333333	0.1333333333333	0.0666666666667	350.77527689933777	
12	334.99975991249084	stim	0		0	0.16666667	0.0666666666667	0.0	232.0	0.0333333333333	0.1333333333333	0.0666666666667	350.8084099292755	23.995265007019043
12	335.7812440395355	response	0	b		0.16666667	0.0666666666667	0.0	232.0	0.0333333333333	0.1333333333333	0.0666666666667	351.5898940563202	
12	336.5622251033783	pulse	0	t		0.16666667	0.0666666666667	0.0	232.0	0.0333333333333	0.1333333333333	0.0666666666667	352.37087512016296	
12	338.1622860431671	pulse	0	t		0.16666667	0.0666666666667	0.0	232.0	0.0333333333333	0.1333333333333	0.0666666666667	353.9709360599518	
12	339.6262800693512	response	0	b		0.16666667	0.0666666666667	0.0	232.0	0.0333333333333	0.1333333333333	0.0666666666667	355.43493008613586	
12	339.76215410232544	pulse	0	t		0.16666667	0.0666666666667	0.0	232.0	0.0333333333333	0.1333333333333	0.0666666666667	355.5708041191101	
12	341.3623309135437	pulse	0	t		0.16666667	0.0666666666667	0.0	232.0	0.0333333333333	0.1333333333333	0.0666666666667	357.17098093032837	
12	341.8772668838501	response	0	b		0.16666667	0.0666666666667	0.0	232.0	0.0333333333333	0.1333333333333	0.0666666666667	357.68591690063477	
12	342.962317943573	pulse	0	t		0.16666667	0.0666666666667	0.0	232.0	0.0333333333333	0.1333333333333	0.0666666666667	358.77096796035767	
12	344.5623309612274	pulse	0	t		0.16666667	0.0666666666667	0.0	232.0	0.0333333333333	0.1333333333333	0.0666666666667	360.3709809780121	
12	346.1623179912567	pulse	0	t		0.16666667	0.0666666666667	0.0	232.0	0.0333333333333	0.1333333333333	0.0666666666667	361.9709680080414	
12	347.7623760700226	pulse	0	t		0.16666667	0.0666666666667	0.0	232.0	0.0333333333333	0.1333333333333	0.0666666666667	363.57102608680725	
12	349.3624179363251	pulse	0	t		0.16666667	0.0666666666667	0.0	232.0	0.0333333333333	0.1333333333333	0.0666666666667	365.17106795310974	
12	350.96240305900574	pulse	0	t		0.16666667	0.0666666666667	0.0	232.0	0.0333333333333	0.1333333333333	0.0666666666667	366.7710530757904	
12	352.5624120235443	pulse	0	t		0.16666667	0.0666666666667	0.0	232.0	0.0333333333333	0.1333333333333	0.0666666666667	368.371062040329	
12	353.83335304260254	response	0	b		0.16666667	0.0666666666667	0.0	232.0	0.0333333333333	0.1333333333333	0.0666666666667	369.6420030593872	
12	354.1623480319977	pulse	0	t		0.16666667	0.0666666666667	0.0	232.0	0.0333333333333	0.1333333333333	0.0666666666667	369.97099804878235	
12	355.7624440193176	pulse	0	t		0.16666667	0.0666666666667	0.0	232.0	0.0333333333333	0.1333333333333	0.0666666666667	371.5710940361023	
12	357.3625090122223	pulse	0	t		0.16666667	0.0666666666667	0.0	232.0	0.0333333333333	0.1333333333333	0.0666666666667	373.17115902900696	
12	357.8541679382324	response	0	b		0.16666667	0.0666666666667	0.0	232.0	0.0333333333333	0.1333333333333	0.0666666666667	373.6628179550171	
12	358.96249890327454	pulse	0	t		0.16666667	0.0666666666667	0.0	232.0	0.0333333333333	0.1333333333333	0.0666666666667	374.7711489200592	
13	358.9950249195099	stim	0		0	0.16666667	0.0666666666667	270.0	256.0	0.0333333333333	0.1333333333333	0.0666666666667	374.80367493629456	24.00357413291931
13	360.5625538825989	pulse	0	t		0.16666667	0.0666666666667	270.0	256.0	0.0333333333333	0.1333333333333	0.0666666666667	376.37120389938354	
13	362.1289339065552	response	0	b		0.16666667	0.0666666666667	270.0	256.0	0.0333333333333	0.1333333333333	0.0666666666667	377.93758392333984	
13	362.16230511665344	pulse	0	t		0.16666667	0.0666666666667	270.0	256.0	0.0333333333333	0.1333333333333	0.0666666666667	377.9709551334381	
13	363.76260590553284	pulse	0	t		0.16666667	0.0666666666667	270.0	256.0	0.0333333333333	0.1333333333333	0.0666666666667	379.5712559223175	
13	365.3625419139862	pulse	0	t		0.16666667	0.0666666666667	270.0	256.0	0.0333333333333	0.1333333333333	0.0666666666667	381.1711919307709	
13	366.9625930786133	pulse	0	t		0.16666667	0.0666666666667	270.0	256.0	0.0333333333333	0.1333333333333	0.0666666666667	382.77124309539795	
13	368.4096601009369	response	0	b		0.16666667	0.0666666666667	270.0	256.0	0.0333333333333	0.1333333333333	0.0666666666667	384.21831011772156	
13	368.5624849796295	pulse	0	t		0.16666667	0.0666666666667	270.0	256.0	0.0333333333333	0.1333333333333	0.0666666666667	384.3711349964142	
13	370.16265392303467	pulse	0	t		0.16666667	0.0666666666667	270.0	256.0	0.0333333333333	0.1333333333333	0.0666666666667	385.97130393981934	
13	371.76267290115356	pulse	0	t		0.16666667	0.0666666666667	270.0	256.0	0.0333333333333	0.1333333333333	0.0666666666667	387.57132291793823	
13	373.3627390861511	pulse	0	t		0.16666667	0.0666666666667	270.0	256.0	0.0333333333333	0.1333333333333	0.0666666666667	389.1713891029358	
13	374.96272706985474	pulse	0	t		0.16666667	0.0666666666667	270.0	256.0	0.0333333333333	0.1333333333333	0.0666666666667	390.7713770866394	
13	376.56270003318787	pulse	0	t		0.16666667	0.0666666666667	270.0	256.0	0.0333333333333	0.1333333333333	0.0666666666667	392.37135004997253	
13	377.8007318973541	response	0	b		0.16666667	0.0666666666667	270.0	256.0	0.0333333333333	0.1333333333333	0.0666666666667	393.6093819141388	
13	378.1626329421997	pulse	0	t		0.16666667	0.0666666666667	270.0	256.0	0.0333333333333	0.1333333333333	0.0666666666667	393.9712829589844	
13	379.76274609565735	pulse	0	t		0.16666667	0.0666666666667	270.0	256.0	0.0333333333333	0.1333333333333	0.0666666666667	395.571396112442	
13	379.8825960159302	response	0	b		0.16666667	0.0666666666667	270.0	256.0	0.0333333333333	0.1333333333333	0.0666666666667	395.69124603271484	
13	381.3627610206604	pulse	0	t		0.16666667	0.0666666666667	270.0	256.0	0.0333333333333	0.1333333333333	0.0666666666667	397.17141103744507	
13	382.9628059864044	pulse	0	t		0.16666667	0.0666666666667	270.0	256.0	0.0333333333333	0.1333333333333	0.0666666666667	398.7714560031891	
14	382.9985990524292	stim	0		0								398.80724906921387	24.778817892074585
14	384.56567311286926	pulse	0	t									400.37432312965393	
14	386.1658470630646	pulse	0	t									401.97449707984924	
14	387.7660479545593	pulse	0	t									403.574697971344	
14	388.23279905319214	response	0	b									404.0414490699768	
14	389.3664309978485	pulse	0	t									405.1750810146332	
14	390.96667408943176	pulse	0	t									406.77532410621643	
14	391.858421087265	response	0	b									407.6670711040497	
14	392.56686091423035	pulse	0	t									408.375510931015	
14	394.16703701019287	pulse	0	t									409.97568702697754	
14	395.7673370838165	pulse	0	t									411.5759871006012	
14	397.2008581161499	response	0	b									413.00950813293457	
14	397.36758303642273	pulse	0	t									413.1762330532074	
14	398.96779108047485	pulse	0	t									414.7764410972595	
14	400.5679268836975	pulse	0	t									416.3765769004822	
14	402.1682770252228	pulse	0	t									417.97692704200745	
14	403.7518539428711	response	0	b									419.56050395965576	
14	403.7618660926819	pulse	0	t									419.57051610946655	
14	405.36237597465515	pulse	0	t									421.1710259914398	
14	406.96246910095215	pulse	0	t									422.7711191177368	
