trial_nr	onset	event_type	phase	response	nr_frames	bar_width	bar_refresh_time	bar_direction	start_time	bar_blank_duration	bar_blank_interval	bg_stim_refresh_time	onset_abs	duration
0	0.16677594184875488	stim	0		0								10.11723279953003	0.12501001358032227
0	0.2837710380554199	response	0	space									10.234227895736694	
1	0.29178595542907715	stim	0		0								10.242242813110352	33.59295606613159
1	33.86007499694824	pulse	0	t									43.81053185462952	
1	33.88474202156067	stim	1		0								43.83519887924194	0.0009908676147460938
1	33.885732889175415	stim	0		0								43.83618974685669	23.99791407585144
1	35.45550203323364	pulse	0	t									45.40595889091492	
1	37.055651903152466	pulse	0	t									47.00610876083374	
1	37.15573501586914	response	0	y									47.106191873550415	
1	38.64943504333496	pulse	0	t									48.599891901016235	
1	39.72459101676941	response	0	y									49.675047874450684	
1	40.24965190887451	pulse	0	t									50.200108766555786	
1	41.84986710548401	pulse	0	t									51.80032396316528	
1	43.44998502731323	pulse	0	t									53.40044188499451	
1	45.050302028656006	pulse	0	t									55.00075888633728	
1	46.648813009262085	pulse	0	t									56.59926986694336	
1	48.24896192550659	pulse	0	t									58.199418783187866	
1	49.84919095039368	pulse	0	t									59.79964780807495	
1	50.12424111366272	response	0	y									60.074697971343994	
1	51.449548959732056	pulse	0	t									61.40000581741333	
1	53.04977989196777	pulse	0	t									63.00023674964905	
1	54.64999294281006	pulse	0	t									64.60044980049133	
1	54.92682909965515	response	0	y									64.87728595733643	
1	56.250113010406494	pulse	0	t									66.20056986808777	
1	57.85047507286072	pulse	0	t									67.80093193054199	
2	57.883646965026855	stim	0		0	0.16666667	0.0666666666667	270.0	24.0	0.0333333333333	0.1333333333333	0.0666666666667	67.83410382270813	24.003567934036255
2	59.39279389381409	response	0	y		0.16666667	0.0666666666667	270.0	24.0	0.0333333333333	0.1333333333333	0.0666666666667	69.34325075149536	
2	59.448668003082275	pulse	0	t		0.16666667	0.0666666666667	270.0	24.0	0.0333333333333	0.1333333333333	0.0666666666667	69.39912486076355	
2	61.048826932907104	pulse	0	t		0.16666667	0.0666666666667	270.0	24.0	0.0333333333333	0.1333333333333	0.0666666666667	70.99928379058838	
2	62.596811056137085	response	0	y		0.16666667	0.0666666666667	270.0	24.0	0.0333333333333	0.1333333333333	0.0666666666667	72.54726791381836	
2	62.64871311187744	pulse	0	t		0.16666667	0.0666666666667	270.0	24.0	0.0333333333333	0.1333333333333	0.0666666666667	72.59916996955872	
2	64.24885296821594	pulse	0	t		0.16666667	0.0666666666667	270.0	24.0	0.0333333333333	0.1333333333333	0.0666666666667	74.19930982589722	
2	65.84893488883972	pulse	0	t		0.16666667	0.0666666666667	270.0	24.0	0.0333333333333	0.1333333333333	0.0666666666667	75.799391746521	
2	66.19583296775818	response	0	y		0.16666667	0.0666666666667	270.0	24.0	0.0333333333333	0.1333333333333	0.0666666666667	76.14628982543945	
2	67.44892406463623	pulse	0	t		0.16666667	0.0666666666667	270.0	24.0	0.0333333333333	0.1333333333333	0.0666666666667	77.3993809223175	
2	69.04897093772888	pulse	0	t		0.16666667	0.0666666666667	270.0	24.0	0.0333333333333	0.1333333333333	0.0666666666667	78.99942779541016	
2	70.64898109436035	pulse	0	t		0.16666667	0.0666666666667	270.0	24.0	0.0333333333333	0.1333333333333	0.0666666666667	80.59943795204163	
2	72.24898099899292	pulse	0	t		0.16666667	0.0666666666667	270.0	24.0	0.0333333333333	0.1333333333333	0.0666666666667	82.1994378566742	
2	72.42384099960327	response	0	y		0.16666667	0.0666666666667	270.0	24.0	0.0333333333333	0.1333333333333	0.0666666666667	82.37429785728455	
2	73.84898495674133	pulse	0	t		0.16666667	0.0666666666667	270.0	24.0	0.0333333333333	0.1333333333333	0.0666666666667	83.79944181442261	
2	75.44903802871704	pulse	0	t		0.16666667	0.0666666666667	270.0	24.0	0.0333333333333	0.1333333333333	0.0666666666667	85.39949488639832	
2	77.04902696609497	pulse	0	t		0.16666667	0.0666666666667	270.0	24.0	0.0333333333333	0.1333333333333	0.0666666666667	86.99948382377625	
2	78.6490318775177	pulse	0	t		0.16666667	0.0666666666667	270.0	24.0	0.0333333333333	0.1333333333333	0.0666666666667	88.59948873519897	
2	80.24906301498413	pulse	0	t		0.16666667	0.0666666666667	270.0	24.0	0.0333333333333	0.1333333333333	0.0666666666667	90.1995198726654	
2	80.32385396957397	response	0	y		0.16666667	0.0666666666667	270.0	24.0	0.0333333333333	0.1333333333333	0.0666666666667	90.27431082725525	
2	81.84905910491943	pulse	0	t		0.16666667	0.0666666666667	270.0	24.0	0.0333333333333	0.1333333333333	0.0666666666667	91.79951596260071	
3	81.88721489906311	stim	0		0	0.16666667	0.0666666666667	0.0	48.0	0.0333333333333	0.1333333333333	0.0666666666667	91.83767175674438	24.00362801551819
3	83.44915294647217	pulse	0	t		0.16666667	0.0666666666667	0.0	48.0	0.0333333333333	0.1333333333333	0.0666666666667	93.39960980415344	
3	85.04914093017578	pulse	0	t		0.16666667	0.0666666666667	0.0	48.0	0.0333333333333	0.1333333333333	0.0666666666667	94.99959778785706	
3	86.64913892745972	pulse	0	t		0.16666667	0.0666666666667	0.0	48.0	0.0333333333333	0.1333333333333	0.0666666666667	96.59959578514099	
3	88.24918389320374	pulse	0	t		0.16666667	0.0666666666667	0.0	48.0	0.0333333333333	0.1333333333333	0.0666666666667	98.19964075088501	
3	89.849191904068	pulse	0	t		0.16666667	0.0666666666667	0.0	48.0	0.0333333333333	0.1333333333333	0.0666666666667	99.79964876174927	
3	91.44922399520874	pulse	0	t		0.16666667	0.0666666666667	0.0	48.0	0.0333333333333	0.1333333333333	0.0666666666667	101.39968085289001	
3	92.34720993041992	response	0	y		0.16666667	0.0666666666667	0.0	48.0	0.0333333333333	0.1333333333333	0.0666666666667	102.2976667881012	
3	93.04917287826538	pulse	0	t		0.16666667	0.0666666666667	0.0	48.0	0.0333333333333	0.1333333333333	0.0666666666667	102.99962973594666	
3	94.64921593666077	pulse	0	t		0.16666667	0.0666666666667	0.0	48.0	0.0333333333333	0.1333333333333	0.0666666666667	104.59967279434204	
3	96.14789509773254	response	0	y		0.16666667	0.0666666666667	0.0	48.0	0.0333333333333	0.1333333333333	0.0666666666667	106.09835195541382	
3	96.24908494949341	pulse	0	t		0.16666667	0.0666666666667	0.0	48.0	0.0333333333333	0.1333333333333	0.0666666666667	106.19954180717468	
3	97.84930205345154	pulse	0	t		0.16666667	0.0666666666667	0.0	48.0	0.0333333333333	0.1333333333333	0.0666666666667	107.79975891113281	
3	99.44827604293823	response	0	y		0.16666667	0.0666666666667	0.0	48.0	0.0333333333333	0.1333333333333	0.0666666666667	109.3987329006195	
3	99.45027089118958	pulse	0	t		0.16666667	0.0666666666667	0.0	48.0	0.0333333333333	0.1333333333333	0.0666666666667	109.40072774887085	
3	101.049241065979	pulse	0	t		0.16666667	0.0666666666667	0.0	48.0	0.0333333333333	0.1333333333333	0.0666666666667	110.99969792366028	
3	101.8012580871582	response	0	y		0.16666667	0.0666666666667	0.0	48.0	0.0333333333333	0.1333333333333	0.0666666666667	111.75171494483948	
3	102.64927196502686	pulse	0	t		0.16666667	0.0666666666667	0.0	48.0	0.0333333333333	0.1333333333333	0.0666666666667	112.59972882270813	
3	104.24931693077087	pulse	0	t		0.16666667	0.0666666666667	0.0	48.0	0.0333333333333	0.1333333333333	0.0666666666667	114.19977378845215	
3	105.49036192893982	response	0	y		0.16666667	0.0666666666667	0.0	48.0	0.0333333333333	0.1333333333333	0.0666666666667	115.4408187866211	
3	105.84924793243408	pulse	0	t		0.16666667	0.0666666666667	0.0	48.0	0.0333333333333	0.1333333333333	0.0666666666667	115.79970479011536	
4	105.8908429145813	stim	0		0	-1.0	1.0	-1.0	72.0	0.0333333333333	0.1333333333333	0.0666666666667	115.84129977226257	15.993990182876587
4	107.44953894615173	pulse	0	t		-1.0	1.0	-1.0	72.0	0.0333333333333	0.1333333333333	0.0666666666667	117.39999580383301	
4	109.04970192909241	pulse	0	t		-1.0	1.0	-1.0	72.0	0.0333333333333	0.1333333333333	0.0666666666667	119.00015878677368	
4	109.05342197418213	response	0	y		-1.0	1.0	-1.0	72.0	0.0333333333333	0.1333333333333	0.0666666666667	119.0038788318634	
4	110.6500289440155	pulse	0	t		-1.0	1.0	-1.0	72.0	0.0333333333333	0.1333333333333	0.0666666666667	120.60048580169678	
4	111.13332605361938	response	0	y		-1.0	1.0	-1.0	72.0	0.0333333333333	0.1333333333333	0.0666666666667	121.08378291130066	
4	112.25025606155396	pulse	0	t		-1.0	1.0	-1.0	72.0	0.0333333333333	0.1333333333333	0.0666666666667	122.20071291923523	
4	113.85044407844543	pulse	0	t		-1.0	1.0	-1.0	72.0	0.0333333333333	0.1333333333333	0.0666666666667	123.80090093612671	
4	115.45070290565491	pulse	0	t		-1.0	1.0	-1.0	72.0	0.0333333333333	0.1333333333333	0.0666666666667	125.40115976333618	
4	117.0509090423584	pulse	0	t		-1.0	1.0	-1.0	72.0	0.0333333333333	0.1333333333333	0.0666666666667	127.00136590003967	
4	118.65116691589355	pulse	0	t		-1.0	1.0	-1.0	72.0	0.0333333333333	0.1333333333333	0.0666666666667	128.60162377357483	
4	119.80137395858765	response	0	y		-1.0	1.0	-1.0	72.0	0.0333333333333	0.1333333333333	0.0666666666667	129.75183081626892	
4	120.25142002105713	pulse	0	t		-1.0	1.0	-1.0	72.0	0.0333333333333	0.1333333333333	0.0666666666667	130.2018768787384	
4	121.8517439365387	pulse	0	t		-1.0	1.0	-1.0	72.0	0.0333333333333	0.1333333333333	0.0666666666667	131.80220079421997	
5	121.88483309745789	stim	0		0	0.16666667	0.0666666666667	90.0	88.0	0.0333333333333	0.1333333333333	0.0666666666667	131.83528995513916	23.995261907577515
5	122.3785080909729	response	0	y		0.16666667	0.0666666666667	90.0	88.0	0.0333333333333	0.1333333333333	0.0666666666667	132.32896494865417	
5	123.44956803321838	pulse	0	t		0.16666667	0.0666666666667	90.0	88.0	0.0333333333333	0.1333333333333	0.0666666666667	133.40002489089966	
5	125.04964089393616	pulse	0	t		0.16666667	0.0666666666667	90.0	88.0	0.0333333333333	0.1333333333333	0.0666666666667	135.00009775161743	
5	126.64961504936218	pulse	0	t		0.16666667	0.0666666666667	90.0	88.0	0.0333333333333	0.1333333333333	0.0666666666667	136.60007190704346	
5	128.24957704544067	pulse	0	t		0.16666667	0.0666666666667	90.0	88.0	0.0333333333333	0.1333333333333	0.0666666666667	138.20003390312195	
5	129.84967303276062	pulse	0	t		0.16666667	0.0666666666667	90.0	88.0	0.0333333333333	0.1333333333333	0.0666666666667	139.8001298904419	
5	131.44966888427734	pulse	0	t		0.16666667	0.0666666666667	90.0	88.0	0.0333333333333	0.1333333333333	0.0666666666667	141.40012574195862	
5	131.53645706176758	response	0	y		0.16666667	0.0666666666667	90.0	88.0	0.0333333333333	0.1333333333333	0.0666666666667	141.48691391944885	
5	133.04973101615906	pulse	0	t		0.16666667	0.0666666666667	90.0	88.0	0.0333333333333	0.1333333333333	0.0666666666667	143.00018787384033	
5	134.6497039794922	pulse	0	t		0.16666667	0.0666666666667	90.0	88.0	0.0333333333333	0.1333333333333	0.0666666666667	144.60016083717346	
5	136.24973011016846	pulse	0	t		0.16666667	0.0666666666667	90.0	88.0	0.0333333333333	0.1333333333333	0.0666666666667	146.20018696784973	
5	136.37359189987183	response	0	y		0.16666667	0.0666666666667	90.0	88.0	0.0333333333333	0.1333333333333	0.0666666666667	146.3240487575531	
5	137.84969091415405	pulse	0	t		0.16666667	0.0666666666667	90.0	88.0	0.0333333333333	0.1333333333333	0.0666666666667	147.80014777183533	
5	139.15781593322754	response	0	y		0.16666667	0.0666666666667	90.0	88.0	0.0333333333333	0.1333333333333	0.0666666666667	149.1082727909088	
5	139.44869089126587	pulse	0	t		0.16666667	0.0666666666667	90.0	88.0	0.0333333333333	0.1333333333333	0.0666666666667	149.39914774894714	
5	141.04877591133118	pulse	0	t		0.16666667	0.0666666666667	90.0	88.0	0.0333333333333	0.1333333333333	0.0666666666667	150.99923276901245	
5	141.90078496932983	response	0	y		0.16666667	0.0666666666667	90.0	88.0	0.0333333333333	0.1333333333333	0.0666666666667	151.8512418270111	
5	142.64874911308289	pulse	0	t		0.16666667	0.0666666666667	90.0	88.0	0.0333333333333	0.1333333333333	0.0666666666667	152.59920597076416	
5	144.248850107193	pulse	0	t		0.16666667	0.0666666666667	90.0	88.0	0.0333333333333	0.1333333333333	0.0666666666667	154.19930696487427	
5	145.3108160495758	response	0	y		0.16666667	0.0666666666667	90.0	88.0	0.0333333333333	0.1333333333333	0.0666666666667	155.26127290725708	
5	145.84887599945068	pulse	0	t		0.16666667	0.0666666666667	90.0	88.0	0.0333333333333	0.1333333333333	0.0666666666667	155.79933285713196	
6	145.8800950050354	stim	0		0	0.16666667	0.0666666666667	180.0	112.0	0.0333333333333	0.1333333333333	0.0666666666667	155.83055186271667	24.003588914871216
6	147.4488160610199	pulse	0	t		0.16666667	0.0666666666667	180.0	112.0	0.0333333333333	0.1333333333333	0.0666666666667	157.39927291870117	
6	149.04889392852783	pulse	0	t		0.16666667	0.0666666666667	180.0	112.0	0.0333333333333	0.1333333333333	0.0666666666667	158.9993507862091	
6	150.64890003204346	pulse	0	t		0.16666667	0.0666666666667	180.0	112.0	0.0333333333333	0.1333333333333	0.0666666666667	160.59935688972473	
6	150.75073790550232	response	0	y		0.16666667	0.0666666666667	180.0	112.0	0.0333333333333	0.1333333333333	0.0666666666667	160.7011947631836	
6	152.2489140033722	pulse	0	t		0.16666667	0.0666666666667	180.0	112.0	0.0333333333333	0.1333333333333	0.0666666666667	162.19937086105347	
6	153.84899592399597	pulse	0	t		0.16666667	0.0666666666667	180.0	112.0	0.0333333333333	0.1333333333333	0.0666666666667	163.79945278167725	
6	155.44900703430176	pulse	0	t		0.16666667	0.0666666666667	180.0	112.0	0.0333333333333	0.1333333333333	0.0666666666667	165.39946389198303	
6	156.48296308517456	response	0	y		0.16666667	0.0666666666667	180.0	112.0	0.0333333333333	0.1333333333333	0.0666666666667	166.43341994285583	
6	157.04896306991577	pulse	0	t		0.16666667	0.0666666666667	180.0	112.0	0.0333333333333	0.1333333333333	0.0666666666667	166.99941992759705	
6	158.6489520072937	pulse	0	t		0.16666667	0.0666666666667	180.0	112.0	0.0333333333333	0.1333333333333	0.0666666666667	168.59940886497498	
6	160.24903392791748	pulse	0	t		0.16666667	0.0666666666667	180.0	112.0	0.0333333333333	0.1333333333333	0.0666666666667	170.19949078559875	
6	161.04204487800598	response	0	y		0.16666667	0.0666666666667	180.0	112.0	0.0333333333333	0.1333333333333	0.0666666666667	170.99250173568726	
6	161.84901309013367	pulse	0	t		0.16666667	0.0666666666667	180.0	112.0	0.0333333333333	0.1333333333333	0.0666666666667	171.79946994781494	
6	163.44905400276184	pulse	0	t		0.16666667	0.0666666666667	180.0	112.0	0.0333333333333	0.1333333333333	0.0666666666667	173.39951086044312	
6	163.63896107673645	response	0	y		0.16666667	0.0666666666667	180.0	112.0	0.0333333333333	0.1333333333333	0.0666666666667	173.58941793441772	
6	165.04912900924683	pulse	0	t		0.16666667	0.0666666666667	180.0	112.0	0.0333333333333	0.1333333333333	0.0666666666667	174.9995858669281	
6	165.61068987846375	response	0	y		0.16666667	0.0666666666667	180.0	112.0	0.0333333333333	0.1333333333333	0.0666666666667	175.56114673614502	
6	166.64905190467834	pulse	0	t		0.16666667	0.0666666666667	180.0	112.0	0.0333333333333	0.1333333333333	0.0666666666667	176.59950876235962	
6	168.24906992912292	pulse	0	t		0.16666667	0.0666666666667	180.0	112.0	0.0333333333333	0.1333333333333	0.0666666666667	178.1995267868042	
6	169.8491370677948	pulse	0	t		0.16666667	0.0666666666667	180.0	112.0	0.0333333333333	0.1333333333333	0.0666666666667	179.79959392547607	
7	169.88368391990662	stim	0		0	-1.0	1.0	-1.0	136.0	0.0333333333333	0.1333333333333	0.0666666666667	179.8341407775879	16.002357959747314
7	171.4508318901062	pulse	0	t		-1.0	1.0	-1.0	136.0	0.0333333333333	0.1333333333333	0.0666666666667	181.40128874778748	
7	172.8426640033722	response	0	y		-1.0	1.0	-1.0	136.0	0.0333333333333	0.1333333333333	0.0666666666667	182.79312086105347	
7	173.05101203918457	pulse	0	t		-1.0	1.0	-1.0	136.0	0.0333333333333	0.1333333333333	0.0666666666667	183.00146889686584	
7	174.65124702453613	pulse	0	t		-1.0	1.0	-1.0	136.0	0.0333333333333	0.1333333333333	0.0666666666667	184.6017038822174	
7	176.2514889240265	pulse	0	t		-1.0	1.0	-1.0	136.0	0.0333333333333	0.1333333333333	0.0666666666667	186.20194578170776	
7	177.535010099411	response	0	y		-1.0	1.0	-1.0	136.0	0.0333333333333	0.1333333333333	0.0666666666667	187.48546695709229	
7	177.85164999961853	pulse	0	t		-1.0	1.0	-1.0	136.0	0.0333333333333	0.1333333333333	0.0666666666667	187.8021068572998	
7	179.45192408561707	pulse	0	t		-1.0	1.0	-1.0	136.0	0.0333333333333	0.1333333333333	0.0666666666667	189.40238094329834	
7	181.05217099189758	pulse	0	t		-1.0	1.0	-1.0	136.0	0.0333333333333	0.1333333333333	0.0666666666667	191.00262784957886	
7	182.65242910385132	pulse	0	t		-1.0	1.0	-1.0	136.0	0.0333333333333	0.1333333333333	0.0666666666667	192.6028859615326	
7	183.36095690727234	response	0	y		-1.0	1.0	-1.0	136.0	0.0333333333333	0.1333333333333	0.0666666666667	193.3114137649536	
7	184.25263690948486	pulse	0	t		-1.0	1.0	-1.0	136.0	0.0333333333333	0.1333333333333	0.0666666666667	194.20309376716614	
7	185.85292196273804	pulse	0	t		-1.0	1.0	-1.0	136.0	0.0333333333333	0.1333333333333	0.0666666666667	195.8033788204193	
8	185.88604187965393	stim	0		0	-1.0	1.0	-1.0	152.0	0.0333333333333	0.1333333333333	0.0666666666667	195.8364987373352	16.002408027648926
8	185.96965503692627	response	0	y		-1.0	1.0	-1.0	152.0	0.0333333333333	0.1333333333333	0.0666666666667	195.92011189460754	
8	187.4531660079956	pulse	0	t		-1.0	1.0	-1.0	152.0	0.0333333333333	0.1333333333333	0.0666666666667	197.40362286567688	
8	187.9865369796753	response	0	y		-1.0	1.0	-1.0	152.0	0.0333333333333	0.1333333333333	0.0666666666667	197.93699383735657	
8	189.05341601371765	pulse	0	t		-1.0	1.0	-1.0	152.0	0.0333333333333	0.1333333333333	0.0666666666667	199.00387287139893	
8	189.95345091819763	response	0	y		-1.0	1.0	-1.0	152.0	0.0333333333333	0.1333333333333	0.0666666666667	199.9039077758789	
8	190.65364408493042	pulse	0	t		-1.0	1.0	-1.0	152.0	0.0333333333333	0.1333333333333	0.0666666666667	200.6041009426117	
8	192.25389409065247	pulse	0	t		-1.0	1.0	-1.0	152.0	0.0333333333333	0.1333333333333	0.0666666666667	202.20435094833374	
8	193.7475619316101	response	0	y		-1.0	1.0	-1.0	152.0	0.0333333333333	0.1333333333333	0.0666666666667	203.69801878929138	
8	193.8540871143341	pulse	0	t		-1.0	1.0	-1.0	152.0	0.0333333333333	0.1333333333333	0.0666666666667	203.80454397201538	
8	195.45424699783325	pulse	0	t		-1.0	1.0	-1.0	152.0	0.0333333333333	0.1333333333333	0.0666666666667	205.40470385551453	
8	195.8793089389801	response	0	y		-1.0	1.0	-1.0	152.0	0.0333333333333	0.1333333333333	0.0666666666667	205.82976579666138	
8	197.05460500717163	pulse	0	t		-1.0	1.0	-1.0	152.0	0.0333333333333	0.1333333333333	0.0666666666667	207.0050618648529	
8	198.65481400489807	pulse	0	t		-1.0	1.0	-1.0	152.0	0.0333333333333	0.1333333333333	0.0666666666667	208.60527086257935	
8	200.25507402420044	pulse	0	t		-1.0	1.0	-1.0	152.0	0.0333333333333	0.1333333333333	0.0666666666667	210.2055308818817	
8	201.855220079422	pulse	0	t		-1.0	1.0	-1.0	152.0	0.0333333333333	0.1333333333333	0.0666666666667	211.80567693710327	
9	201.88844990730286	stim	0		0	0.16666667	0.0666666666667	180.0	168.0	0.0333333333333	0.1333333333333	0.0666666666667	211.83890676498413	24.00359010696411
9	203.4494559764862	pulse	0	t		0.16666667	0.0666666666667	180.0	168.0	0.0333333333333	0.1333333333333	0.0666666666667	213.39991283416748	
9	203.92041492462158	response	0	y		0.16666667	0.0666666666667	180.0	168.0	0.0333333333333	0.1333333333333	0.0666666666667	213.87087178230286	
9	205.04948806762695	pulse	0	t		0.16666667	0.0666666666667	180.0	168.0	0.0333333333333	0.1333333333333	0.0666666666667	214.99994492530823	
9	206.6495349407196	pulse	0	t		0.16666667	0.0666666666667	180.0	168.0	0.0333333333333	0.1333333333333	0.0666666666667	216.59999179840088	
9	207.13650393486023	response	0	y		0.16666667	0.0666666666667	180.0	168.0	0.0333333333333	0.1333333333333	0.0666666666667	217.0869607925415	
9	208.24951601028442	pulse	0	t		0.16666667	0.0666666666667	180.0	168.0	0.0333333333333	0.1333333333333	0.0666666666667	218.1999728679657	
9	209.11652898788452	response	0	y		0.16666667	0.0666666666667	180.0	168.0	0.0333333333333	0.1333333333333	0.0666666666667	219.0669858455658	
9	209.84955310821533	pulse	0	t		0.16666667	0.0666666666667	180.0	168.0	0.0333333333333	0.1333333333333	0.0666666666667	219.8000099658966	
9	211.4495599269867	pulse	0	t		0.16666667	0.0666666666667	180.0	168.0	0.0333333333333	0.1333333333333	0.0666666666667	221.40001678466797	
9	212.42556595802307	response	0	y		0.16666667	0.0666666666667	180.0	168.0	0.0333333333333	0.1333333333333	0.0666666666667	222.37602281570435	
9	213.04956197738647	pulse	0	t		0.16666667	0.0666666666667	180.0	168.0	0.0333333333333	0.1333333333333	0.0666666666667	223.00001883506775	
9	214.64963293075562	pulse	0	t		0.16666667	0.0666666666667	180.0	168.0	0.0333333333333	0.1333333333333	0.0666666666667	224.6000897884369	
9	216.0157868862152	response	0	y		0.16666667	0.0666666666667	180.0	168.0	0.0333333333333	0.1333333333333	0.0666666666667	225.96624374389648	
9	216.24953699111938	pulse	0	t		0.16666667	0.0666666666667	180.0	168.0	0.0333333333333	0.1333333333333	0.0666666666667	226.19999384880066	
9	217.84968400001526	pulse	0	t		0.16666667	0.0666666666667	180.0	168.0	0.0333333333333	0.1333333333333	0.0666666666667	227.80014085769653	
9	219.44967699050903	pulse	0	t		0.16666667	0.0666666666667	180.0	168.0	0.0333333333333	0.1333333333333	0.0666666666667	229.4001338481903	
9	221.04968094825745	pulse	0	t		0.16666667	0.0666666666667	180.0	168.0	0.0333333333333	0.1333333333333	0.0666666666667	231.00013780593872	
9	221.22456288337708	response	0	y		0.16666667	0.0666666666667	180.0	168.0	0.0333333333333	0.1333333333333	0.0666666666667	231.17501974105835	
9	222.6497130393982	pulse	0	t		0.16666667	0.0666666666667	180.0	168.0	0.0333333333333	0.1333333333333	0.0666666666667	232.60016989707947	
9	224.2497329711914	response	0	y		0.16666667	0.0666666666667	180.0	168.0	0.0333333333333	0.1333333333333	0.0666666666667	234.20018982887268	
9	224.25175094604492	pulse	0	t		0.16666667	0.0666666666667	180.0	168.0	0.0333333333333	0.1333333333333	0.0666666666667	234.2022078037262	
9	225.84976601600647	pulse	0	t		0.16666667	0.0666666666667	180.0	168.0	0.0333333333333	0.1333333333333	0.0666666666667	235.80022287368774	
10	225.89204001426697	stim	0		0	0.16666667	0.0666666666667	90.0	192.0	0.0333333333333	0.1333333333333	0.0666666666667	235.84249687194824	23.99523401260376
10	227.44979810714722	pulse	0	t		0.16666667	0.0666666666667	90.0	192.0	0.0333333333333	0.1333333333333	0.0666666666667	237.4002549648285	
10	229.0498058795929	pulse	0	t		0.16666667	0.0666666666667	90.0	192.0	0.0333333333333	0.1333333333333	0.0666666666667	239.00026273727417	
10	230.15379190444946	response	0	y		0.16666667	0.0666666666667	90.0	192.0	0.0333333333333	0.1333333333333	0.0666666666667	240.10424876213074	
10	230.64979791641235	pulse	0	t		0.16666667	0.0666666666667	90.0	192.0	0.0333333333333	0.1333333333333	0.0666666666667	240.60025477409363	
10	232.2497980594635	pulse	0	t		0.16666667	0.0666666666667	90.0	192.0	0.0333333333333	0.1333333333333	0.0666666666667	242.20025491714478	
10	233.8498260974884	pulse	0	t		0.16666667	0.0666666666667	90.0	192.0	0.0333333333333	0.1333333333333	0.0666666666667	243.80028295516968	
10	235.44985389709473	pulse	0	t		0.16666667	0.0666666666667	90.0	192.0	0.0333333333333	0.1333333333333	0.0666666666667	245.400310754776	
10	237.04987692832947	pulse	0	t		0.16666667	0.0666666666667	90.0	192.0	0.0333333333333	0.1333333333333	0.0666666666667	247.00033378601074	
10	238.64891600608826	pulse	0	t		0.16666667	0.0666666666667	90.0	192.0	0.0333333333333	0.1333333333333	0.0666666666667	248.59937286376953	
10	238.8517870903015	response	0	y		0.16666667	0.0666666666667	90.0	192.0	0.0333333333333	0.1333333333333	0.0666666666667	248.8022439479828	
10	240.24904108047485	pulse	0	t		0.16666667	0.0666666666667	90.0	192.0	0.0333333333333	0.1333333333333	0.0666666666667	250.19949793815613	
10	241.84903407096863	pulse	0	t		0.16666667	0.0666666666667	90.0	192.0	0.0333333333333	0.1333333333333	0.0666666666667	251.7994909286499	
10	242.01488399505615	response	0	y		0.16666667	0.0666666666667	90.0	192.0	0.0333333333333	0.1333333333333	0.0666666666667	251.96534085273743	
10	243.4490089416504	pulse	0	t		0.16666667	0.0666666666667	90.0	192.0	0.0333333333333	0.1333333333333	0.0666666666667	253.39946579933167	
10	245.04908299446106	pulse	0	t		0.16666667	0.0666666666667	90.0	192.0	0.0333333333333	0.1333333333333	0.0666666666667	254.99953985214233	
10	245.80311489105225	response	0	y		0.16666667	0.0666666666667	90.0	192.0	0.0333333333333	0.1333333333333	0.0666666666667	255.75357174873352	
10	246.64896202087402	pulse	0	t		0.16666667	0.0666666666667	90.0	192.0	0.0333333333333	0.1333333333333	0.0666666666667	256.5994188785553	
10	248.24903798103333	pulse	0	t		0.16666667	0.0666666666667	90.0	192.0	0.0333333333333	0.1333333333333	0.0666666666667	258.1994948387146	
10	249.84907507896423	pulse	0	t		0.16666667	0.0666666666667	90.0	192.0	0.0333333333333	0.1333333333333	0.0666666666667	259.7995319366455	
11	249.88727402687073	stim	0		0	-1.0	1.0	-1.0	216.0	0.0333333333333	0.1333333333333	0.0666666666667	259.837730884552	16.002424001693726
11	251.45441889762878	pulse	0	t		-1.0	1.0	-1.0	216.0	0.0333333333333	0.1333333333333	0.0666666666667	261.40487575531006	
11	251.74605107307434	response	0	y		-1.0	1.0	-1.0	216.0	0.0333333333333	0.1333333333333	0.0666666666667	261.6965079307556	
11	253.05462503433228	pulse	0	t		-1.0	1.0	-1.0	216.0	0.0333333333333	0.1333333333333	0.0666666666667	263.00508189201355	
11	254.65487694740295	pulse	0	t		-1.0	1.0	-1.0	216.0	0.0333333333333	0.1333333333333	0.0666666666667	264.60533380508423	
11	256.0967209339142	response	0	y		-1.0	1.0	-1.0	216.0	0.0333333333333	0.1333333333333	0.0666666666667	266.04717779159546	
11	256.25509691238403	pulse	0	t		-1.0	1.0	-1.0	216.0	0.0333333333333	0.1333333333333	0.0666666666667	266.2055537700653	
11	257.8552689552307	pulse	0	t		-1.0	1.0	-1.0	216.0	0.0333333333333	0.1333333333333	0.0666666666667	267.805725812912	
11	258.7971360683441	response	0	y		-1.0	1.0	-1.0	216.0	0.0333333333333	0.1333333333333	0.0666666666667	268.7475929260254	
11	259.455482006073	pulse	0	t		-1.0	1.0	-1.0	216.0	0.0333333333333	0.1333333333333	0.0666666666667	269.4059388637543	
11	261.04920196533203	pulse	0	t		-1.0	1.0	-1.0	216.0	0.0333333333333	0.1333333333333	0.0666666666667	270.9996588230133	
11	261.8725469112396	response	0	y		-1.0	1.0	-1.0	216.0	0.0333333333333	0.1333333333333	0.0666666666667	271.8230037689209	
11	262.64951610565186	pulse	0	t		-1.0	1.0	-1.0	216.0	0.0333333333333	0.1333333333333	0.0666666666667	272.59997296333313	
11	264.24981904029846	pulse	0	t		-1.0	1.0	-1.0	216.0	0.0333333333333	0.1333333333333	0.0666666666667	274.20027589797974	
11	265.23324394226074	response	0	y		-1.0	1.0	-1.0	216.0	0.0333333333333	0.1333333333333	0.0666666666667	275.183700799942	
11	265.8500120639801	pulse	0	t		-1.0	1.0	-1.0	216.0	0.0333333333333	0.1333333333333	0.0666666666667	275.8004689216614	
12	265.88969802856445	stim	0		0	0.16666667	0.0666666666667	0.0	232.0	0.0333333333333	0.1333333333333	0.0666666666667	275.8401548862457	24.003575086593628
12	267.4492540359497	pulse	0	t		0.16666667	0.0666666666667	0.0	232.0	0.0333333333333	0.1333333333333	0.0666666666667	277.399710893631	
12	269.0492579936981	pulse	0	t		0.16666667	0.0666666666667	0.0	232.0	0.0333333333333	0.1333333333333	0.0666666666667	278.9997148513794	
12	270.64926195144653	pulse	0	t		0.16666667	0.0666666666667	0.0	232.0	0.0333333333333	0.1333333333333	0.0666666666667	280.5997188091278	
12	271.29030299186707	response	0	y		0.16666667	0.0666666666667	0.0	232.0	0.0333333333333	0.1333333333333	0.0666666666667	281.24075984954834	
12	272.2493109703064	pulse	0	t		0.16666667	0.0666666666667	0.0	232.0	0.0333333333333	0.1333333333333	0.0666666666667	282.19976782798767	
12	273.8493769168854	pulse	0	t		0.16666667	0.0666666666667	0.0	232.0	0.0333333333333	0.1333333333333	0.0666666666667	283.79983377456665	
12	274.9713740348816	response	0	y		0.16666667	0.0666666666667	0.0	232.0	0.0333333333333	0.1333333333333	0.0666666666667	284.92183089256287	
12	275.4493329524994	pulse	0	t		0.16666667	0.0666666666667	0.0	232.0	0.0333333333333	0.1333333333333	0.0666666666667	285.39978981018066	
12	277.0493609905243	pulse	0	t		0.16666667	0.0666666666667	0.0	232.0	0.0333333333333	0.1333333333333	0.0666666666667	286.99981784820557	
12	278.64940190315247	pulse	0	t		0.16666667	0.0666666666667	0.0	232.0	0.0333333333333	0.1333333333333	0.0666666666667	288.59985876083374	
12	280.2493829727173	pulse	0	t		0.16666667	0.0666666666667	0.0	232.0	0.0333333333333	0.1333333333333	0.0666666666667	290.19983983039856	
12	281.8494679927826	pulse	0	t		0.16666667	0.0666666666667	0.0	232.0	0.0333333333333	0.1333333333333	0.0666666666667	291.79992485046387	
12	283.44946694374084	pulse	0	t		0.16666667	0.0666666666667	0.0	232.0	0.0333333333333	0.1333333333333	0.0666666666667	293.3999238014221	
12	284.8644530773163	response	0	y		0.16666667	0.0666666666667	0.0	232.0	0.0333333333333	0.1333333333333	0.0666666666667	294.81490993499756	
12	285.0493929386139	pulse	0	t		0.16666667	0.0666666666667	0.0	232.0	0.0333333333333	0.1333333333333	0.0666666666667	294.99984979629517	
12	286.64949107170105	pulse	0	t		0.16666667	0.0666666666667	0.0	232.0	0.0333333333333	0.1333333333333	0.0666666666667	296.5999479293823	
12	286.99644207954407	response	0	y		0.16666667	0.0666666666667	0.0	232.0	0.0333333333333	0.1333333333333	0.0666666666667	296.94689893722534	
12	288.24953293800354	pulse	0	t		0.16666667	0.0666666666667	0.0	232.0	0.0333333333333	0.1333333333333	0.0666666666667	298.1999897956848	
12	289.20848393440247	response	0	y		0.16666667	0.0666666666667	0.0	232.0	0.0333333333333	0.1333333333333	0.0666666666667	299.15894079208374	
12	289.84950399398804	pulse	0	t		0.16666667	0.0666666666667	0.0	232.0	0.0333333333333	0.1333333333333	0.0666666666667	299.7999608516693	
13	289.8932731151581	stim	0		0	0.16666667	0.0666666666667	270.0	256.0	0.0333333333333	0.1333333333333	0.0666666666667	299.84372997283936	23.995269775390625
13	291.44963097572327	pulse	0	t		0.16666667	0.0666666666667	270.0	256.0	0.0333333333333	0.1333333333333	0.0666666666667	301.40008783340454	
13	292.05662393569946	response	0	y		0.16666667	0.0666666666667	270.0	256.0	0.0333333333333	0.1333333333333	0.0666666666667	302.00708079338074	
13	293.04962611198425	pulse	0	t		0.16666667	0.0666666666667	270.0	256.0	0.0333333333333	0.1333333333333	0.0666666666667	303.0000829696655	
13	294.6496789455414	pulse	0	t		0.16666667	0.0666666666667	270.0	256.0	0.0333333333333	0.1333333333333	0.0666666666667	304.60013580322266	
13	296.2496259212494	pulse	0	t		0.16666667	0.0666666666667	270.0	256.0	0.0333333333333	0.1333333333333	0.0666666666667	306.20008277893066	
13	297.5946469306946	response	0	y		0.16666667	0.0666666666667	270.0	256.0	0.0333333333333	0.1333333333333	0.0666666666667	307.54510378837585	
13	297.84955501556396	pulse	0	t		0.16666667	0.0666666666667	270.0	256.0	0.0333333333333	0.1333333333333	0.0666666666667	307.80001187324524	
13	299.44971108436584	pulse	0	t		0.16666667	0.0666666666667	270.0	256.0	0.0333333333333	0.1333333333333	0.0666666666667	309.4001679420471	
13	301.04972100257874	pulse	0	t		0.16666667	0.0666666666667	270.0	256.0	0.0333333333333	0.1333333333333	0.0666666666667	311.00017786026	
13	302.6497359275818	pulse	0	t		0.16666667	0.0666666666667	270.0	256.0	0.0333333333333	0.1333333333333	0.0666666666667	312.60019278526306	
13	303.758749961853	response	0	y		0.16666667	0.0666666666667	270.0	256.0	0.0333333333333	0.1333333333333	0.0666666666667	313.7092068195343	
13	304.24974608421326	pulse	0	t		0.16666667	0.0666666666667	270.0	256.0	0.0333333333333	0.1333333333333	0.0666666666667	314.20020294189453	
13	305.84981298446655	pulse	0	t		0.16666667	0.0666666666667	270.0	256.0	0.0333333333333	0.1333333333333	0.0666666666667	315.8002698421478	
13	306.86478900909424	response	0	y		0.16666667	0.0666666666667	270.0	256.0	0.0333333333333	0.1333333333333	0.0666666666667	316.8152458667755	
13	307.4497389793396	pulse	0	t		0.16666667	0.0666666666667	270.0	256.0	0.0333333333333	0.1333333333333	0.0666666666667	317.4001958370209	
13	309.0497329235077	pulse	0	t		0.16666667	0.0666666666667	270.0	256.0	0.0333333333333	0.1333333333333	0.0666666666667	319.00018978118896	
13	310.64977407455444	pulse	0	t		0.16666667	0.0666666666667	270.0	256.0	0.0333333333333	0.1333333333333	0.0666666666667	320.6002309322357	
13	312.24978709220886	pulse	0	t		0.16666667	0.0666666666667	270.0	256.0	0.0333333333333	0.1333333333333	0.0666666666667	322.20024394989014	
13	312.90478706359863	response	0	y		0.16666667	0.0666666666667	270.0	256.0	0.0333333333333	0.1333333333333	0.0666666666667	322.8552439212799	
13	313.8497679233551	pulse	0	t		0.16666667	0.0666666666667	270.0	256.0	0.0333333333333	0.1333333333333	0.0666666666667	323.8002247810364	
14	313.8885428905487	stim	0		0								323.83899974823	24.262076139450073
14	315.4556770324707	pulse	0	t									325.406133890152	
14	317.0558989048004	pulse	0	t									327.0063557624817	
14	318.65601992607117	pulse	0	t									328.60647678375244	
14	320.25627994537354	pulse	0	t									330.2067368030548	
14	321.84999990463257	pulse	0	t									331.80045676231384	
14	323.45020508766174	pulse	0	t									333.400661945343	
14	324.2586259841919	response	0	y									334.20908284187317	
14	325.05045104026794	pulse	0	t									335.0009078979492	
14	326.65066409111023	pulse	0	t									336.6011209487915	
14	326.7405788898468	response	0	y									336.6910357475281	
14	328.250962972641	pulse	0	t									338.20141983032227	
14	329.85109996795654	pulse	0	t									339.8015568256378	
14	330.1910789012909	response	0	y									340.14153575897217	
14	331.451397895813	pulse	0	t									341.40185475349426	
14	333.05168294906616	pulse	0	t									343.00213980674744	
14	334.65013003349304	pulse	0	t									344.6005868911743	
14	335.13538002967834	response	0	y									345.0858368873596	
14	336.250284910202	pulse	0	t									346.2007417678833	
14	337.85060811042786	pulse	0	t									347.80106496810913	
