trial_nr	onset	event_type	phase	response	nr_frames	bar_width	bar_refresh_time	bar_direction	start_time	bar_blank_duration	bar_blank_interval	bg_stim_refresh_time	onset_abs	duration
0	0.16666507720947266	stim	0		0								67.55047702789307	3.525439977645874
0	3.684117078781128	response	0	space									71.06792902946472	
1	3.6921050548553467	stim	0		0								71.07591700553894	38.79077100753784
1	42.44590401649475	pulse	0	t									109.82971596717834	
1	42.48287606239319	stim	1		0								109.86668801307678	0.0006639957427978516
1	42.483540058135986	stim	0		0								109.86735200881958	24.00129795074463
1	44.04176592826843	pulse	0	t									111.42557787895203	
1	45.64019799232483	pulse	0	t									113.02400994300842	
1	45.7002489566803	response	0	y									113.08406090736389	
1	47.24042797088623	pulse	0	t									114.62423992156982	
1	48.840641021728516	pulse	0	t									116.22445297241211	
1	50.440962076187134	pulse	0	t									117.82477402687073	
1	50.7825710773468	response	0	y									118.1663830280304	
1	52.04114007949829	pulse	0	t									119.42495203018188	
1	53.641319036483765	pulse	0	t									121.02513098716736	
1	55.241633892059326	pulse	0	t									122.62544584274292	
1	56.841800928115845	pulse	0	t									124.22561287879944	
1	57.88539004325867	response	0	y									125.26920199394226	
1	58.44212794303894	pulse	0	t									125.82593989372253	
1	60.04234600067139	pulse	0	t									127.42615795135498	
1	60.85080409049988	response	0	y									128.23461604118347	
1	61.64258694648743	pulse	0	t									129.02639889717102	
1	63.00936508178711	response	0	y									130.3931770324707	
1	63.24277210235596	pulse	0	t									130.62658405303955	
1	64.84307789802551	pulse	0	t									132.2268898487091	
1	66.44335508346558	pulse	0	t									133.82716703414917	
2	66.48483800888062	stim	0		0	0.16666667	0.0666666666667	270.0	24.0	0.0333333333333	0.1333333333333	0.0666666666667	133.8686499595642	23.995296001434326
2	68.03934288024902	pulse	0	t		0.16666667	0.0666666666667	270.0	24.0	0.0333333333333	0.1333333333333	0.0666666666667	135.42315483093262	
2	69.63938093185425	pulse	0	t		0.16666667	0.0666666666667	270.0	24.0	0.0333333333333	0.1333333333333	0.0666666666667	137.02319288253784	
2	71.239413022995	pulse	0	t		0.16666667	0.0666666666667	270.0	24.0	0.0333333333333	0.1333333333333	0.0666666666667	138.6232249736786	
2	72.45936107635498	response	0	y		0.16666667	0.0666666666667	270.0	24.0	0.0333333333333	0.1333333333333	0.0666666666667	139.84317302703857	
2	72.83934688568115	pulse	0	t		0.16666667	0.0666666666667	270.0	24.0	0.0333333333333	0.1333333333333	0.0666666666667	140.22315883636475	
2	74.43944787979126	pulse	0	t		0.16666667	0.0666666666667	270.0	24.0	0.0333333333333	0.1333333333333	0.0666666666667	141.82325983047485	
2	76.0394229888916	pulse	0	t		0.16666667	0.0666666666667	270.0	24.0	0.0333333333333	0.1333333333333	0.0666666666667	143.4232349395752	
2	76.24329805374146	response	0	y		0.16666667	0.0666666666667	270.0	24.0	0.0333333333333	0.1333333333333	0.0666666666667	143.62711000442505	
2	77.63946008682251	pulse	0	t		0.16666667	0.0666666666667	270.0	24.0	0.0333333333333	0.1333333333333	0.0666666666667	145.0232720375061	
2	79.23945498466492	pulse	0	t		0.16666667	0.0666666666667	270.0	24.0	0.0333333333333	0.1333333333333	0.0666666666667	146.6232669353485	
2	79.53141689300537	response	0	y		0.16666667	0.0666666666667	270.0	24.0	0.0333333333333	0.1333333333333	0.0666666666667	146.91522884368896	
2	80.83947610855103	pulse	0	t		0.16666667	0.0666666666667	270.0	24.0	0.0333333333333	0.1333333333333	0.0666666666667	148.22328805923462	
2	82.43947911262512	pulse	0	t		0.16666667	0.0666666666667	270.0	24.0	0.0333333333333	0.1333333333333	0.0666666666667	149.82329106330872	
2	84.03955292701721	pulse	0	t		0.16666667	0.0666666666667	270.0	24.0	0.0333333333333	0.1333333333333	0.0666666666667	151.4233648777008	
2	85.19753694534302	response	0	y		0.16666667	0.0666666666667	270.0	24.0	0.0333333333333	0.1333333333333	0.0666666666667	152.5813488960266	
2	85.63950800895691	pulse	0	t		0.16666667	0.0666666666667	270.0	24.0	0.0333333333333	0.1333333333333	0.0666666666667	153.0233199596405	
2	87.2395510673523	pulse	0	t		0.16666667	0.0666666666667	270.0	24.0	0.0333333333333	0.1333333333333	0.0666666666667	154.6233630180359	
2	87.3614399433136	response	0	y		0.16666667	0.0666666666667	270.0	24.0	0.0333333333333	0.1333333333333	0.0666666666667	154.7452518939972	
2	88.83956909179688	pulse	0	t		0.16666667	0.0666666666667	270.0	24.0	0.0333333333333	0.1333333333333	0.0666666666667	156.22338104248047	
2	90.22854089736938	response	0	y		0.16666667	0.0666666666667	270.0	24.0	0.0333333333333	0.1333333333333	0.0666666666667	157.61235284805298	
2	90.43946099281311	pulse	0	t		0.16666667	0.0666666666667	270.0	24.0	0.0333333333333	0.1333333333333	0.0666666666667	157.8232729434967	
3	90.48013401031494	stim	0		0	0.16666667	0.0666666666667	0.0	48.0	0.0333333333333	0.1333333333333	0.0666666666667	157.86394596099854	24.011857986450195
3	92.03964400291443	pulse	0	t		0.16666667	0.0666666666667	0.0	48.0	0.0333333333333	0.1333333333333	0.0666666666667	159.42345595359802	
3	93.6396369934082	pulse	0	t		0.16666667	0.0666666666667	0.0	48.0	0.0333333333333	0.1333333333333	0.0666666666667	161.0234489440918	
3	95.23969388008118	pulse	0	t		0.16666667	0.0666666666667	0.0	48.0	0.0333333333333	0.1333333333333	0.0666666666667	162.62350583076477	
3	95.35350799560547	response	0	y		0.16666667	0.0666666666667	0.0	48.0	0.0333333333333	0.1333333333333	0.0666666666667	162.73731994628906	
3	96.83965706825256	pulse	0	t		0.16666667	0.0666666666667	0.0	48.0	0.0333333333333	0.1333333333333	0.0666666666667	164.22346901893616	
3	98.43969702720642	pulse	0	t		0.16666667	0.0666666666667	0.0	48.0	0.0333333333333	0.1333333333333	0.0666666666667	165.82350897789001	
3	100.03971600532532	pulse	0	t		0.16666667	0.0666666666667	0.0	48.0	0.0333333333333	0.1333333333333	0.0666666666667	167.4235279560089	
3	100.46466588973999	response	0	y		0.16666667	0.0666666666667	0.0	48.0	0.0333333333333	0.1333333333333	0.0666666666667	167.84847784042358	
3	101.63971495628357	pulse	0	t		0.16666667	0.0666666666667	0.0	48.0	0.0333333333333	0.1333333333333	0.0666666666667	169.02352690696716	
3	103.23968195915222	pulse	0	t		0.16666667	0.0666666666667	0.0	48.0	0.0333333333333	0.1333333333333	0.0666666666667	170.62349390983582	
3	104.83973288536072	pulse	0	t		0.16666667	0.0666666666667	0.0	48.0	0.0333333333333	0.1333333333333	0.0666666666667	172.2235448360443	
3	105.82774901390076	response	0	y		0.16666667	0.0666666666667	0.0	48.0	0.0333333333333	0.1333333333333	0.0666666666667	173.21156096458435	
3	106.43968296051025	pulse	0	t		0.16666667	0.0666666666667	0.0	48.0	0.0333333333333	0.1333333333333	0.0666666666667	173.82349491119385	
3	108.03978204727173	pulse	0	t		0.16666667	0.0666666666667	0.0	48.0	0.0333333333333	0.1333333333333	0.0666666666667	175.42359399795532	
3	109.63979411125183	pulse	0	t		0.16666667	0.0666666666667	0.0	48.0	0.0333333333333	0.1333333333333	0.0666666666667	177.02360606193542	
3	111.23981094360352	pulse	0	t		0.16666667	0.0666666666667	0.0	48.0	0.0333333333333	0.1333333333333	0.0666666666667	178.6236228942871	
3	112.83979892730713	pulse	0	t		0.16666667	0.0666666666667	0.0	48.0	0.0333333333333	0.1333333333333	0.0666666666667	180.22361087799072	
3	114.23183298110962	response	0	y		0.16666667	0.0666666666667	0.0	48.0	0.0333333333333	0.1333333333333	0.0666666666667	181.6156449317932	
3	114.43976497650146	pulse	0	t		0.16666667	0.0666666666667	0.0	48.0	0.0333333333333	0.1333333333333	0.0666666666667	181.82357692718506	
4	114.49199199676514	stim	0		0	-1.0	1.0	-1.0	72.0	0.0333333333333	0.1333333333333	0.0666666666667	181.87580394744873	15.994019985198975
4	116.04238200187683	pulse	0	t		-1.0	1.0	-1.0	72.0	0.0333333333333	0.1333333333333	0.0666666666667	183.42619395256042	
4	116.42581105232239	response	0	y		-1.0	1.0	-1.0	72.0	0.0333333333333	0.1333333333333	0.0666666666667	183.80962300300598	
4	117.64269304275513	pulse	0	t		-1.0	1.0	-1.0	72.0	0.0333333333333	0.1333333333333	0.0666666666667	185.02650499343872	
4	119.24284601211548	pulse	0	t		-1.0	1.0	-1.0	72.0	0.0333333333333	0.1333333333333	0.0666666666667	186.62665796279907	
4	120.84311389923096	pulse	0	t		-1.0	1.0	-1.0	72.0	0.0333333333333	0.1333333333333	0.0666666666667	188.22692584991455	
4	122.44331789016724	pulse	0	t		-1.0	1.0	-1.0	72.0	0.0333333333333	0.1333333333333	0.0666666666667	189.82712984085083	
4	124.0436339378357	pulse	0	t		-1.0	1.0	-1.0	72.0	0.0333333333333	0.1333333333333	0.0666666666667	191.4274458885193	
4	125.64397311210632	pulse	0	t		-1.0	1.0	-1.0	72.0	0.0333333333333	0.1333333333333	0.0666666666667	193.02778506278992	
4	127.24410796165466	pulse	0	t		-1.0	1.0	-1.0	72.0	0.0333333333333	0.1333333333333	0.0666666666667	194.62791991233826	
4	128.84424901008606	pulse	0	t		-1.0	1.0	-1.0	72.0	0.0333333333333	0.1333333333333	0.0666666666667	196.22806096076965	
4	130.44450998306274	pulse	0	t		-1.0	1.0	-1.0	72.0	0.0333333333333	0.1333333333333	0.0666666666667	197.82832193374634	
5	130.4860119819641	stim	0		0	0.16666667	0.0666666666667	90.0	88.0	0.0333333333333	0.1333333333333	0.0666666666667	197.8698239326477	23.995301961898804
5	131.40715503692627	response	0	y		0.16666667	0.0666666666667	90.0	88.0	0.0333333333333	0.1333333333333	0.0666666666667	198.79096698760986	
5	132.04012894630432	pulse	0	t		0.16666667	0.0666666666667	90.0	88.0	0.0333333333333	0.1333333333333	0.0666666666667	199.42394089698792	
5	133.64008688926697	pulse	0	t		0.16666667	0.0666666666667	90.0	88.0	0.0333333333333	0.1333333333333	0.0666666666667	201.02389883995056	
5	133.96200609207153	response	0	y		0.16666667	0.0666666666667	90.0	88.0	0.0333333333333	0.1333333333333	0.0666666666667	201.34581804275513	
5	135.240149974823	pulse	0	t		0.16666667	0.0666666666667	90.0	88.0	0.0333333333333	0.1333333333333	0.0666666666667	202.6239619255066	
5	136.2311179637909	response	0	y		0.16666667	0.0666666666667	90.0	88.0	0.0333333333333	0.1333333333333	0.0666666666667	203.6149299144745	
5	136.8401460647583	pulse	0	t		0.16666667	0.0666666666667	90.0	88.0	0.0333333333333	0.1333333333333	0.0666666666667	204.2239580154419	
5	138.44010305404663	pulse	0	t		0.16666667	0.0666666666667	90.0	88.0	0.0333333333333	0.1333333333333	0.0666666666667	205.82391500473022	
5	139.80120706558228	response	0	y		0.16666667	0.0666666666667	90.0	88.0	0.0333333333333	0.1333333333333	0.0666666666667	207.18501901626587	
5	140.04004096984863	pulse	0	t		0.16666667	0.0666666666667	90.0	88.0	0.0333333333333	0.1333333333333	0.0666666666667	207.42385292053223	
5	141.64016103744507	pulse	0	t		0.16666667	0.0666666666667	90.0	88.0	0.0333333333333	0.1333333333333	0.0666666666667	209.02397298812866	
5	143.24023509025574	pulse	0	t		0.16666667	0.0666666666667	90.0	88.0	0.0333333333333	0.1333333333333	0.0666666666667	210.62404704093933	
5	143.43506789207458	response	0	y		0.16666667	0.0666666666667	90.0	88.0	0.0333333333333	0.1333333333333	0.0666666666667	210.81887984275818	
5	144.84025502204895	pulse	0	t		0.16666667	0.0666666666667	90.0	88.0	0.0333333333333	0.1333333333333	0.0666666666667	212.22406697273254	
5	146.44024395942688	pulse	0	t		0.16666667	0.0666666666667	90.0	88.0	0.0333333333333	0.1333333333333	0.0666666666667	213.82405591011047	
5	148.0402319431305	pulse	0	t		0.16666667	0.0666666666667	90.0	88.0	0.0333333333333	0.1333333333333	0.0666666666667	215.4240438938141	
5	149.61730289459229	response	0	y		0.16666667	0.0666666666667	90.0	88.0	0.0333333333333	0.1333333333333	0.0666666666667	217.00111484527588	
5	149.64010095596313	pulse	0	t		0.16666667	0.0666666666667	90.0	88.0	0.0333333333333	0.1333333333333	0.0666666666667	217.02391290664673	
5	151.2393400669098	pulse	0	t		0.16666667	0.0666666666667	90.0	88.0	0.0333333333333	0.1333333333333	0.0666666666667	218.62315201759338	
5	151.7822699546814	response	0	y		0.16666667	0.0666666666667	90.0	88.0	0.0333333333333	0.1333333333333	0.0666666666667	219.166081905365	
5	152.83934903144836	pulse	0	t		0.16666667	0.0666666666667	90.0	88.0	0.0333333333333	0.1333333333333	0.0666666666667	220.22316098213196	
5	154.43935799598694	pulse	0	t		0.16666667	0.0666666666667	90.0	88.0	0.0333333333333	0.1333333333333	0.0666666666667	221.82316994667053	
6	154.48131394386292	stim	0		0	0.16666667	0.0666666666667	180.0	112.0	0.0333333333333	0.1333333333333	0.0666666666667	221.8651258945465	24.003565073013306
6	155.4592900276184	response	0	y		0.16666667	0.0666666666667	180.0	112.0	0.0333333333333	0.1333333333333	0.0666666666667	222.843101978302	
6	156.0393180847168	pulse	0	t		0.16666667	0.0666666666667	180.0	112.0	0.0333333333333	0.1333333333333	0.0666666666667	223.4231300354004	
6	157.63935494422913	pulse	0	t		0.16666667	0.0666666666667	180.0	112.0	0.0333333333333	0.1333333333333	0.0666666666667	225.02316689491272	
6	157.94857597351074	response	0	y		0.16666667	0.0666666666667	180.0	112.0	0.0333333333333	0.1333333333333	0.0666666666667	225.33238792419434	
6	159.23937392234802	pulse	0	t		0.16666667	0.0666666666667	180.0	112.0	0.0333333333333	0.1333333333333	0.0666666666667	226.62318587303162	
6	160.8393828868866	pulse	0	t		0.16666667	0.0666666666667	180.0	112.0	0.0333333333333	0.1333333333333	0.0666666666667	228.2231948375702	
6	162.439444065094	pulse	0	t		0.16666667	0.0666666666667	180.0	112.0	0.0333333333333	0.1333333333333	0.0666666666667	229.8232560157776	
6	164.03950190544128	pulse	0	t		0.16666667	0.0666666666667	180.0	112.0	0.0333333333333	0.1333333333333	0.0666666666667	231.42331385612488	
6	164.04157400131226	response	0	y		0.16666667	0.0666666666667	180.0	112.0	0.0333333333333	0.1333333333333	0.0666666666667	231.42538595199585	
6	165.63948392868042	pulse	0	t		0.16666667	0.0666666666667	180.0	112.0	0.0333333333333	0.1333333333333	0.0666666666667	233.023295879364	
6	166.73349499702454	response	0	y		0.16666667	0.0666666666667	180.0	112.0	0.0333333333333	0.1333333333333	0.0666666666667	234.11730694770813	
6	167.2395350933075	pulse	0	t		0.16666667	0.0666666666667	180.0	112.0	0.0333333333333	0.1333333333333	0.0666666666667	234.6233470439911	
6	168.83948588371277	pulse	0	t		0.16666667	0.0666666666667	180.0	112.0	0.0333333333333	0.1333333333333	0.0666666666667	236.22329783439636	
6	169.20446801185608	response	0	y		0.16666667	0.0666666666667	180.0	112.0	0.0333333333333	0.1333333333333	0.0666666666667	236.58827996253967	
6	170.43949794769287	pulse	0	t		0.16666667	0.0666666666667	180.0	112.0	0.0333333333333	0.1333333333333	0.0666666666667	237.82330989837646	
6	172.03957605361938	pulse	0	t		0.16666667	0.0666666666667	180.0	112.0	0.0333333333333	0.1333333333333	0.0666666666667	239.42338800430298	
6	172.1363730430603	response	0	y		0.16666667	0.0666666666667	180.0	112.0	0.0333333333333	0.1333333333333	0.0666666666667	239.5201849937439	
6	173.63957405090332	pulse	0	t		0.16666667	0.0666666666667	180.0	112.0	0.0333333333333	0.1333333333333	0.0666666666667	241.0233860015869	
6	175.23958110809326	pulse	0	t		0.16666667	0.0666666666667	180.0	112.0	0.0333333333333	0.1333333333333	0.0666666666667	242.62339305877686	
6	176.83959102630615	pulse	0	t		0.16666667	0.0666666666667	180.0	112.0	0.0333333333333	0.1333333333333	0.0666666666667	244.22340297698975	
6	178.43961906433105	pulse	0	t		0.16666667	0.0666666666667	180.0	112.0	0.0333333333333	0.1333333333333	0.0666666666667	245.82343101501465	
7	178.48487901687622	stim	0		0	-1.0	1.0	-1.0	136.0	0.0333333333333	0.1333333333333	0.0666666666667	245.86869096755981	16.00245189666748
7	180.04367804527283	pulse	0	t		-1.0	1.0	-1.0	136.0	0.0333333333333	0.1333333333333	0.0666666666667	247.42748999595642	
7	181.64379906654358	pulse	0	t		-1.0	1.0	-1.0	136.0	0.0333333333333	0.1333333333333	0.0666666666667	249.02761101722717	
7	182.66901993751526	response	0	y		-1.0	1.0	-1.0	136.0	0.0333333333333	0.1333333333333	0.0666666666667	250.05283188819885	
7	183.2440700531006	pulse	0	t		-1.0	1.0	-1.0	136.0	0.0333333333333	0.1333333333333	0.0666666666667	250.62788200378418	
7	184.84441590309143	pulse	0	t		-1.0	1.0	-1.0	136.0	0.0333333333333	0.1333333333333	0.0666666666667	252.22822785377502	
7	185.55288410186768	response	0	y		-1.0	1.0	-1.0	136.0	0.0333333333333	0.1333333333333	0.0666666666667	252.93669605255127	
7	186.44465589523315	pulse	0	t		-1.0	1.0	-1.0	136.0	0.0333333333333	0.1333333333333	0.0666666666667	253.82846784591675	
7	188.0448179244995	pulse	0	t		-1.0	1.0	-1.0	136.0	0.0333333333333	0.1333333333333	0.0666666666667	255.4286298751831	
7	189.64508605003357	pulse	0	t		-1.0	1.0	-1.0	136.0	0.0333333333333	0.1333333333333	0.0666666666667	257.02889800071716	
7	190.26172709465027	response	0	y		-1.0	1.0	-1.0	136.0	0.0333333333333	0.1333333333333	0.0666666666667	257.64553904533386	
7	191.2453429698944	pulse	0	t		-1.0	1.0	-1.0	136.0	0.0333333333333	0.1333333333333	0.0666666666667	258.629154920578	
7	192.48711490631104	response	0	y		-1.0	1.0	-1.0	136.0	0.0333333333333	0.1333333333333	0.0666666666667	259.87092685699463	
7	192.84553790092468	pulse	0	t		-1.0	1.0	-1.0	136.0	0.0333333333333	0.1333333333333	0.0666666666667	260.2293498516083	
7	194.44571495056152	pulse	0	t		-1.0	1.0	-1.0	136.0	0.0333333333333	0.1333333333333	0.0666666666667	261.8295269012451	
8	194.4873309135437	stim	0		0	-1.0	1.0	-1.0	152.0	0.0333333333333	0.1333333333333	0.0666666666667	261.8711428642273	16.002284049987793
8	194.82077503204346	response	0	y		-1.0	1.0	-1.0	152.0	0.0333333333333	0.1333333333333	0.0666666666667	262.20458698272705	
8	196.0459349155426	pulse	0	t		-1.0	1.0	-1.0	152.0	0.0333333333333	0.1333333333333	0.0666666666667	263.4297468662262	
8	197.6462960243225	pulse	0	t		-1.0	1.0	-1.0	152.0	0.0333333333333	0.1333333333333	0.0666666666667	265.0301079750061	
8	198.23789811134338	response	0	y		-1.0	1.0	-1.0	152.0	0.0333333333333	0.1333333333333	0.0666666666667	265.621710062027	
8	199.23992609977722	pulse	0	t		-1.0	1.0	-1.0	152.0	0.0333333333333	0.1333333333333	0.0666666666667	266.6237380504608	
8	200.84035897254944	pulse	0	t		-1.0	1.0	-1.0	152.0	0.0333333333333	0.1333333333333	0.0666666666667	268.22417092323303	
8	201.60509991645813	response	0	y		-1.0	1.0	-1.0	152.0	0.0333333333333	0.1333333333333	0.0666666666667	268.9889118671417	
8	202.44039392471313	pulse	0	t		-1.0	1.0	-1.0	152.0	0.0333333333333	0.1333333333333	0.0666666666667	269.82420587539673	
8	204.04064798355103	pulse	0	t		-1.0	1.0	-1.0	152.0	0.0333333333333	0.1333333333333	0.0666666666667	271.4244599342346	
8	204.2139070034027	response	0	y		-1.0	1.0	-1.0	152.0	0.0333333333333	0.1333333333333	0.0666666666667	271.5977189540863	
8	205.64089798927307	pulse	0	t		-1.0	1.0	-1.0	152.0	0.0333333333333	0.1333333333333	0.0666666666667	273.02470993995667	
8	207.24118995666504	pulse	0	t		-1.0	1.0	-1.0	152.0	0.0333333333333	0.1333333333333	0.0666666666667	274.62500190734863	
8	207.63099193572998	response	0	y		-1.0	1.0	-1.0	152.0	0.0333333333333	0.1333333333333	0.0666666666667	275.0148038864136	
8	208.84139800071716	pulse	0	t		-1.0	1.0	-1.0	152.0	0.0333333333333	0.1333333333333	0.0666666666667	276.22520995140076	
8	209.84146189689636	response	0	y		-1.0	1.0	-1.0	152.0	0.0333333333333	0.1333333333333	0.0666666666667	277.22527384757996	
8	210.4416151046753	pulse	0	t		-1.0	1.0	-1.0	152.0	0.0333333333333	0.1333333333333	0.0666666666667	277.8254270553589	
9	210.4896149635315	stim	0		0	0.16666667	0.0666666666667	180.0	168.0	0.0333333333333	0.1333333333333	0.0666666666667	277.8734269142151	23.99527907371521
9	212.03999495506287	pulse	0	t		0.16666667	0.0666666666667	180.0	168.0	0.0333333333333	0.1333333333333	0.0666666666667	279.42380690574646	
9	213.64001488685608	pulse	0	t		0.16666667	0.0666666666667	180.0	168.0	0.0333333333333	0.1333333333333	0.0666666666667	281.0238268375397	
9	214.82907390594482	response	0	y		0.16666667	0.0666666666667	180.0	168.0	0.0333333333333	0.1333333333333	0.0666666666667	282.2128858566284	
9	215.23998403549194	pulse	0	t		0.16666667	0.0666666666667	180.0	168.0	0.0333333333333	0.1333333333333	0.0666666666667	282.62379598617554	
9	216.84008598327637	pulse	0	t		0.16666667	0.0666666666667	180.0	168.0	0.0333333333333	0.1333333333333	0.0666666666667	284.22389793395996	
9	217.66103792190552	response	0	y		0.16666667	0.0666666666667	180.0	168.0	0.0333333333333	0.1333333333333	0.0666666666667	285.0448498725891	
9	218.44008088111877	pulse	0	t		0.16666667	0.0666666666667	180.0	168.0	0.0333333333333	0.1333333333333	0.0666666666667	285.82389283180237	
9	220.04017400741577	pulse	0	t		0.16666667	0.0666666666667	180.0	168.0	0.0333333333333	0.1333333333333	0.0666666666667	287.42398595809937	
9	221.64011406898499	pulse	0	t		0.16666667	0.0666666666667	180.0	168.0	0.0333333333333	0.1333333333333	0.0666666666667	289.0239260196686	
9	223.2401740550995	pulse	0	t		0.16666667	0.0666666666667	180.0	168.0	0.0333333333333	0.1333333333333	0.0666666666667	290.6239860057831	
9	224.84015488624573	pulse	0	t		0.16666667	0.0666666666667	180.0	168.0	0.0333333333333	0.1333333333333	0.0666666666667	292.2239668369293	
9	226.44020700454712	pulse	0	t		0.16666667	0.0666666666667	180.0	168.0	0.0333333333333	0.1333333333333	0.0666666666667	293.8240189552307	
9	228.04017901420593	pulse	0	t		0.16666667	0.0666666666667	180.0	168.0	0.0333333333333	0.1333333333333	0.0666666666667	295.4239909648895	
9	228.4931709766388	response	0	y		0.16666667	0.0666666666667	180.0	168.0	0.0333333333333	0.1333333333333	0.0666666666667	295.8769829273224	
9	229.6401391029358	pulse	0	t		0.16666667	0.0666666666667	180.0	168.0	0.0333333333333	0.1333333333333	0.0666666666667	297.0239510536194	
9	231.24020290374756	pulse	0	t		0.16666667	0.0666666666667	180.0	168.0	0.0333333333333	0.1333333333333	0.0666666666667	298.62401485443115	
9	232.84026908874512	pulse	0	t		0.16666667	0.0666666666667	180.0	168.0	0.0333333333333	0.1333333333333	0.0666666666667	300.2240810394287	
9	234.16628098487854	response	0	y		0.16666667	0.0666666666667	180.0	168.0	0.0333333333333	0.1333333333333	0.0666666666667	301.55009293556213	
9	234.44016289710999	pulse	0	t		0.16666667	0.0666666666667	180.0	168.0	0.0333333333333	0.1333333333333	0.0666666666667	301.8239748477936	
10	234.4848940372467	stim	0		0	0.16666667	0.0666666666667	90.0	192.0	0.0333333333333	0.1333333333333	0.0666666666667	301.8687059879303	23.995338916778564
10	236.04031610488892	pulse	0	t		0.16666667	0.0666666666667	90.0	192.0	0.0333333333333	0.1333333333333	0.0666666666667	303.4241280555725	
10	237.64034008979797	pulse	0	t		0.16666667	0.0666666666667	90.0	192.0	0.0333333333333	0.1333333333333	0.0666666666667	305.02415204048157	
10	239.24034810066223	pulse	0	t		0.16666667	0.0666666666667	90.0	192.0	0.0333333333333	0.1333333333333	0.0666666666667	306.6241600513458	
10	240.29831409454346	response	0	y		0.16666667	0.0666666666667	90.0	192.0	0.0333333333333	0.1333333333333	0.0666666666667	307.68212604522705	
10	240.84031200408936	pulse	0	t		0.16666667	0.0666666666667	90.0	192.0	0.0333333333333	0.1333333333333	0.0666666666667	308.22412395477295	
10	242.4403510093689	pulse	0	t		0.16666667	0.0666666666667	90.0	192.0	0.0333333333333	0.1333333333333	0.0666666666667	309.8241629600525	
10	244.04041504859924	pulse	0	t		0.16666667	0.0666666666667	90.0	192.0	0.0333333333333	0.1333333333333	0.0666666666667	311.42422699928284	
10	244.15323400497437	response	0	y		0.16666667	0.0666666666667	90.0	192.0	0.0333333333333	0.1333333333333	0.0666666666667	311.53704595565796	
10	245.64043498039246	pulse	0	t		0.16666667	0.0666666666667	90.0	192.0	0.0333333333333	0.1333333333333	0.0666666666667	313.02424693107605	
10	247.2394518852234	pulse	0	t		0.16666667	0.0666666666667	90.0	192.0	0.0333333333333	0.1333333333333	0.0666666666667	314.623263835907	
10	247.57135009765625	response	0	y		0.16666667	0.0666666666667	90.0	192.0	0.0333333333333	0.1333333333333	0.0666666666667	314.95516204833984	
10	248.84046387672424	pulse	0	t		0.16666667	0.0666666666667	90.0	192.0	0.0333333333333	0.1333333333333	0.0666666666667	316.22427582740784	
10	249.8164460659027	response	0	y		0.16666667	0.0666666666667	90.0	192.0	0.0333333333333	0.1333333333333	0.0666666666667	317.2002580165863	
10	250.43948602676392	pulse	0	t		0.16666667	0.0666666666667	90.0	192.0	0.0333333333333	0.1333333333333	0.0666666666667	317.8232979774475	
10	252.03943490982056	pulse	0	t		0.16666667	0.0666666666667	90.0	192.0	0.0333333333333	0.1333333333333	0.0666666666667	319.42324686050415	
10	253.6395080089569	pulse	0	t		0.16666667	0.0666666666667	90.0	192.0	0.0333333333333	0.1333333333333	0.0666666666667	321.0233199596405	
10	255.23951411247253	pulse	0	t		0.16666667	0.0666666666667	90.0	192.0	0.0333333333333	0.1333333333333	0.0666666666667	322.6233260631561	
10	256.8395268917084	pulse	0	t		0.16666667	0.0666666666667	90.0	192.0	0.0333333333333	0.1333333333333	0.0666666666667	324.22333884239197	
10	258.26255202293396	response	0	y		0.16666667	0.0666666666667	90.0	192.0	0.0333333333333	0.1333333333333	0.0666666666667	325.64636397361755	
10	258.4394509792328	pulse	0	t		0.16666667	0.0666666666667	90.0	192.0	0.0333333333333	0.1333333333333	0.0666666666667	325.8232629299164	
11	258.48023295402527	stim	0		0	-1.0	1.0	-1.0	216.0	0.0333333333333	0.1333333333333	0.0666666666667	325.86404490470886	16.010596990585327
11	260.040757894516	pulse	0	t		-1.0	1.0	-1.0	216.0	0.0333333333333	0.1333333333333	0.0666666666667	327.4245698451996	
11	261.6411008834839	pulse	0	t		-1.0	1.0	-1.0	216.0	0.0333333333333	0.1333333333333	0.0666666666667	329.0249128341675	
11	261.6641728878021	response	0	y		-1.0	1.0	-1.0	216.0	0.0333333333333	0.1333333333333	0.0666666666667	329.0479848384857	
11	263.24116706848145	pulse	0	t		-1.0	1.0	-1.0	216.0	0.0333333333333	0.1333333333333	0.0666666666667	330.62497901916504	
11	264.841500043869	pulse	0	t		-1.0	1.0	-1.0	216.0	0.0333333333333	0.1333333333333	0.0666666666667	332.2253119945526	
11	265.34802198410034	response	0	y		-1.0	1.0	-1.0	216.0	0.0333333333333	0.1333333333333	0.0666666666667	332.73183393478394	
11	266.4397280216217	pulse	0	t		-1.0	1.0	-1.0	216.0	0.0333333333333	0.1333333333333	0.0666666666667	333.8235399723053	
11	268.04000210762024	pulse	0	t		-1.0	1.0	-1.0	216.0	0.0333333333333	0.1333333333333	0.0666666666667	335.42381405830383	
11	269.116986989975	response	0	y		-1.0	1.0	-1.0	216.0	0.0333333333333	0.1333333333333	0.0666666666667	336.50079894065857	
11	269.6403560638428	pulse	0	t		-1.0	1.0	-1.0	216.0	0.0333333333333	0.1333333333333	0.0666666666667	337.02416801452637	
11	271.2405650615692	pulse	0	t		-1.0	1.0	-1.0	216.0	0.0333333333333	0.1333333333333	0.0666666666667	338.6243770122528	
11	272.84075593948364	pulse	0	t		-1.0	1.0	-1.0	216.0	0.0333333333333	0.1333333333333	0.0666666666667	340.22456789016724	
11	274.4410240650177	pulse	0	t		-1.0	1.0	-1.0	216.0	0.0333333333333	0.1333333333333	0.0666666666667	341.8248360157013	
12	274.4908299446106	stim	0		0	0.16666667	0.0666666666667	0.0	232.0	0.0333333333333	0.1333333333333	0.0666666666667	341.8746418952942	23.995245933532715
12	276.0397639274597	pulse	0	t		0.16666667	0.0666666666667	0.0	232.0	0.0333333333333	0.1333333333333	0.0666666666667	343.4235758781433	
12	277.63976287841797	pulse	0	t		0.16666667	0.0666666666667	0.0	232.0	0.0333333333333	0.1333333333333	0.0666666666667	345.02357482910156	
12	277.8358039855957	response	0	y		0.16666667	0.0666666666667	0.0	232.0	0.0333333333333	0.1333333333333	0.0666666666667	345.2196159362793	
12	279.23974800109863	pulse	0	t		0.16666667	0.0666666666667	0.0	232.0	0.0333333333333	0.1333333333333	0.0666666666667	346.6235599517822	
12	280.3408169746399	response	0	y		0.16666667	0.0666666666667	0.0	232.0	0.0333333333333	0.1333333333333	0.0666666666667	347.7246289253235	
12	280.83976888656616	pulse	0	t		0.16666667	0.0666666666667	0.0	232.0	0.0333333333333	0.1333333333333	0.0666666666667	348.22358083724976	
12	282.4398350715637	pulse	0	t		0.16666667	0.0666666666667	0.0	232.0	0.0333333333333	0.1333333333333	0.0666666666667	349.8236470222473	
12	283.33987402915955	response	0	y		0.16666667	0.0666666666667	0.0	232.0	0.0333333333333	0.1333333333333	0.0666666666667	350.72368597984314	
12	284.0398769378662	pulse	0	t		0.16666667	0.0666666666667	0.0	232.0	0.0333333333333	0.1333333333333	0.0666666666667	351.4236888885498	
12	285.63992500305176	pulse	0	t		0.16666667	0.0666666666667	0.0	232.0	0.0333333333333	0.1333333333333	0.0666666666667	353.02373695373535	
12	287.239865064621	pulse	0	t		0.16666667	0.0666666666667	0.0	232.0	0.0333333333333	0.1333333333333	0.0666666666667	354.62367701530457	
12	287.3997709751129	response	0	y		0.16666667	0.0666666666667	0.0	232.0	0.0333333333333	0.1333333333333	0.0666666666667	354.7835829257965	
12	288.8398859500885	pulse	0	t		0.16666667	0.0666666666667	0.0	232.0	0.0333333333333	0.1333333333333	0.0666666666667	356.2236979007721	
12	290.43991804122925	pulse	0	t		0.16666667	0.0666666666667	0.0	232.0	0.0333333333333	0.1333333333333	0.0666666666667	357.82372999191284	
12	292.0399820804596	pulse	0	t		0.16666667	0.0666666666667	0.0	232.0	0.0333333333333	0.1333333333333	0.0666666666667	359.4237940311432	
12	293.6399540901184	pulse	0	t		0.16666667	0.0666666666667	0.0	232.0	0.0333333333333	0.1333333333333	0.0666666666667	361.023766040802	
12	293.73979806900024	response	0	y		0.16666667	0.0666666666667	0.0	232.0	0.0333333333333	0.1333333333333	0.0666666666667	361.12361001968384	
12	295.2399830818176	pulse	0	t		0.16666667	0.0666666666667	0.0	232.0	0.0333333333333	0.1333333333333	0.0666666666667	362.6237950325012	
12	296.83996295928955	pulse	0	t		0.16666667	0.0666666666667	0.0	232.0	0.0333333333333	0.1333333333333	0.0666666666667	364.22377490997314	
12	297.9010100364685	response	0	y		0.16666667	0.0666666666667	0.0	232.0	0.0333333333333	0.1333333333333	0.0666666666667	365.2848219871521	
12	298.4400010108948	pulse	0	t		0.16666667	0.0666666666667	0.0	232.0	0.0333333333333	0.1333333333333	0.0666666666667	365.82381296157837	
13	298.4860758781433	stim	0		0	0.16666667	0.0666666666667	270.0	256.0	0.0333333333333	0.1333333333333	0.0666666666667	365.8698878288269	24.0036461353302
13	300.0400359630585	pulse	0	t		0.16666667	0.0666666666667	270.0	256.0	0.0333333333333	0.1333333333333	0.0666666666667	367.42384791374207	
13	301.6400520801544	pulse	0	t		0.16666667	0.0666666666667	270.0	256.0	0.0333333333333	0.1333333333333	0.0666666666667	369.023864030838	
13	303.24007201194763	pulse	0	t		0.16666667	0.0666666666667	270.0	256.0	0.0333333333333	0.1333333333333	0.0666666666667	370.6238839626312	
13	304.84011006355286	pulse	0	t		0.16666667	0.0666666666667	270.0	256.0	0.0333333333333	0.1333333333333	0.0666666666667	372.22392201423645	
13	305.9030659198761	response	0	y		0.16666667	0.0666666666667	270.0	256.0	0.0333333333333	0.1333333333333	0.0666666666667	373.2868778705597	
13	306.44009804725647	pulse	0	t		0.16666667	0.0666666666667	270.0	256.0	0.0333333333333	0.1333333333333	0.0666666666667	373.82390999794006	
13	308.04010796546936	pulse	0	t		0.16666667	0.0666666666667	270.0	256.0	0.0333333333333	0.1333333333333	0.0666666666667	375.42391991615295	
13	309.6401550769806	pulse	0	t		0.16666667	0.0666666666667	270.0	256.0	0.0333333333333	0.1333333333333	0.0666666666667	377.0239670276642	
13	311.24019289016724	pulse	0	t		0.16666667	0.0666666666667	270.0	256.0	0.0333333333333	0.1333333333333	0.0666666666667	378.62400484085083	
13	312.840204000473	pulse	0	t		0.16666667	0.0666666666667	270.0	256.0	0.0333333333333	0.1333333333333	0.0666666666667	380.2240159511566	
13	314.4402129650116	pulse	0	t		0.16666667	0.0666666666667	270.0	256.0	0.0333333333333	0.1333333333333	0.0666666666667	381.8240249156952	
13	315.12020111083984	response	0	y		0.16666667	0.0666666666667	270.0	256.0	0.0333333333333	0.1333333333333	0.0666666666667	382.50401306152344	
13	316.0402638912201	pulse	0	t		0.16666667	0.0666666666667	270.0	256.0	0.0333333333333	0.1333333333333	0.0666666666667	383.4240758419037	
13	317.64024090766907	pulse	0	t		0.16666667	0.0666666666667	270.0	256.0	0.0333333333333	0.1333333333333	0.0666666666667	385.02405285835266	
13	317.8541510105133	response	0	y		0.16666667	0.0666666666667	270.0	256.0	0.0333333333333	0.1333333333333	0.0666666666667	385.2379629611969	
13	319.24021196365356	pulse	0	t		0.16666667	0.0666666666667	270.0	256.0	0.0333333333333	0.1333333333333	0.0666666666667	386.62402391433716	
13	320.8402888774872	pulse	0	t		0.16666667	0.0666666666667	270.0	256.0	0.0333333333333	0.1333333333333	0.0666666666667	388.2241008281708	
13	322.44029688835144	pulse	0	t		0.16666667	0.0666666666667	270.0	256.0	0.0333333333333	0.1333333333333	0.0666666666667	389.82410883903503	
14	322.4897220134735	stim	0		0								389.8735339641571	24.261969089508057
14	324.0419590473175	pulse	0	t									391.4257709980011	
14	324.84849095344543	response	0	y									392.232302904129	
14	325.64208698272705	pulse	0	t									393.02589893341064	
14	327.24046301841736	pulse	0	t									394.62427496910095	
14	328.84075593948364	pulse	0	t									396.22456789016724	
14	328.9824171066284	response	0	y									396.366229057312	
14	330.4411790370941	pulse	0	t									397.8249909877777	
14	332.0413520336151	pulse	0	t									399.4251639842987	
14	333.6414749622345	pulse	0	t									401.0252869129181	
14	335.2417368888855	pulse	0	t									402.6255488395691	
14	335.8434898853302	response	0	y									403.2273018360138	
14	336.84205389022827	pulse	0	t									404.22586584091187	
14	338.4422650337219	pulse	0	t									405.8260769844055	
14	340.04247188568115	pulse	0	t									407.42628383636475	
14	341.6427319049835	pulse	0	t									409.0265438556671	
14	342.7345139980316	response	0	y									410.1183259487152	
14	343.2429950237274	pulse	0	t									410.626806974411	
14	344.8432309627533	pulse	0	t									412.2270429134369	
14	346.4434459209442	pulse	0	t									413.8272578716278	
