trial_nr	onset	event_type	phase	response	nr_frames	bar_width	bar_refresh_time	bar_direction	start_time	bar_blank_duration	bar_blank_interval	bg_stim_refresh_time	onset_abs	duration
0	0.15786409378051758	stim	0		0								8.91401195526123	0.30873799324035645
0	0.4586939811706543	response	0	space									9.214841842651367	
1	0.466602087020874	stim	0		0								9.222749948501587	33.72486591339111
1	34.179105043411255	pulse	0	t									42.93525290489197	
1	34.19146800041199	stim	1		0								42.9476158618927	24.008156061172485
1	35.7687931060791	pulse	1	t									44.524940967559814	
1	37.374845027923584	pulse	1	t									46.1309928894043	
1	38.974833965301514	pulse	1	t									47.73098182678223	
1	40.57458710670471	pulse	1	t									49.330734968185425	
1	42.17474889755249	pulse	1	t									50.9308967590332	
1	43.77481508255005	pulse	1	t									52.53096294403076	
1	45.37489604949951	pulse	1	t									54.131043910980225	
1	46.974905014038086	pulse	1	t									55.7310528755188	
1	48.574771881103516	pulse	1	t									57.33091974258423	
1	50.17483687400818	pulse	1	t									58.93098473548889	
1	51.77476787567139	pulse	1	t									60.5309157371521	
1	53.37480688095093	pulse	1	t									62.13095474243164	
1	54.97475004196167	pulse	1	t									63.73089790344238	
1	56.574795961380005	pulse	1	t									65.33094382286072	
1	58.17483592033386	pulse	1	t									66.93098378181458	
2	58.19962406158447	stim	0		0	0.16666667	0.0666666666667	270.0	24.0	0.0333333333333	0.1333333333333	0.0666666666667	66.95577192306519	23.99997091293335
2	59.769052028656006	pulse	0	t		0.16666667	0.0666666666667	270.0	24.0	0.0333333333333	0.1333333333333	0.0666666666667	68.52519989013672	
2	61.36895990371704	pulse	0	t		0.16666667	0.0666666666667	270.0	24.0	0.0333333333333	0.1333333333333	0.0666666666667	70.12510776519775	
2	62.96888995170593	pulse	0	t		0.16666667	0.0666666666667	270.0	24.0	0.0333333333333	0.1333333333333	0.0666666666667	71.72503781318665	
2	63.380903005599976	response	0	r		0.16666667	0.0666666666667	270.0	24.0	0.0333333333333	0.1333333333333	0.0666666666667	72.13705086708069	
2	64.5688328742981	pulse	0	t		0.16666667	0.0666666666667	270.0	24.0	0.0333333333333	0.1333333333333	0.0666666666667	73.32498073577881	
2	66.1687638759613	pulse	0	t		0.16666667	0.0666666666667	270.0	24.0	0.0333333333333	0.1333333333333	0.0666666666667	74.92491173744202	
2	67.76955699920654	pulse	0	t		0.16666667	0.0666666666667	270.0	24.0	0.0333333333333	0.1333333333333	0.0666666666667	76.52570486068726	
2	68.530513048172	response	0	r		0.16666667	0.0666666666667	270.0	24.0	0.0333333333333	0.1333333333333	0.0666666666667	77.28666090965271	
2	69.36950492858887	pulse	0	t		0.16666667	0.0666666666667	270.0	24.0	0.0333333333333	0.1333333333333	0.0666666666667	78.12565279006958	
2	70.94746994972229	response	0	r		0.16666667	0.0666666666667	270.0	24.0	0.0333333333333	0.1333333333333	0.0666666666667	79.703617811203	
2	70.96915102005005	pulse	0	t		0.16666667	0.0666666666667	270.0	24.0	0.0333333333333	0.1333333333333	0.0666666666667	79.72529888153076	
2	72.56930994987488	pulse	0	t		0.16666667	0.0666666666667	270.0	24.0	0.0333333333333	0.1333333333333	0.0666666666667	81.32545781135559	
2	74.16912603378296	pulse	0	t		0.16666667	0.0666666666667	270.0	24.0	0.0333333333333	0.1333333333333	0.0666666666667	82.92527389526367	
2	74.19798398017883	response	0	r		0.16666667	0.0666666666667	270.0	24.0	0.0333333333333	0.1333333333333	0.0666666666667	82.95413184165955	
2	75.76903510093689	pulse	0	t		0.16666667	0.0666666666667	270.0	24.0	0.0333333333333	0.1333333333333	0.0666666666667	84.5251829624176	
2	76.80100607872009	response	0	r		0.16666667	0.0666666666667	270.0	24.0	0.0333333333333	0.1333333333333	0.0666666666667	85.5571539402008	
2	77.36892294883728	pulse	0	t		0.16666667	0.0666666666667	270.0	24.0	0.0333333333333	0.1333333333333	0.0666666666667	86.125070810318	
2	78.89585089683533	response	0	r		0.16666667	0.0666666666667	270.0	24.0	0.0333333333333	0.1333333333333	0.0666666666667	87.65199875831604	
2	78.96873593330383	pulse	0	t		0.16666667	0.0666666666667	270.0	24.0	0.0333333333333	0.1333333333333	0.0666666666667	87.72488379478455	
2	80.56872892379761	pulse	0	t		0.16666667	0.0666666666667	270.0	24.0	0.0333333333333	0.1333333333333	0.0666666666667	89.32487678527832	
2	80.79862904548645	response	0	r		0.16666667	0.0666666666667	270.0	24.0	0.0333333333333	0.1333333333333	0.0666666666667	89.55477690696716	
2	82.16861891746521	pulse	0	t		0.16666667	0.0666666666667	270.0	24.0	0.0333333333333	0.1333333333333	0.0666666666667	90.92476677894592	
3	82.19959497451782	stim	0		0	0.16666667	0.0666666666667	0.0	48.0	0.0333333333333	0.1333333333333	0.0666666666667	90.95574283599854	23.999774932861328
3	83.76959109306335	pulse	0	t		0.16666667	0.0666666666667	0.0	48.0	0.0333333333333	0.1333333333333	0.0666666666667	92.52573895454407	
3	84.2580919265747	response	0	r		0.16666667	0.0666666666667	0.0	48.0	0.0333333333333	0.1333333333333	0.0666666666667	93.01423978805542	
3	85.36949610710144	pulse	0	t		0.16666667	0.0666666666667	0.0	48.0	0.0333333333333	0.1333333333333	0.0666666666667	94.12564396858215	
3	86.70434999465942	response	0	r		0.16666667	0.0666666666667	0.0	48.0	0.0333333333333	0.1333333333333	0.0666666666667	95.46049785614014	
3	86.96927905082703	pulse	0	t		0.16666667	0.0666666666667	0.0	48.0	0.0333333333333	0.1333333333333	0.0666666666667	95.72542691230774	
3	88.56930494308472	pulse	0	t		0.16666667	0.0666666666667	0.0	48.0	0.0333333333333	0.1333333333333	0.0666666666667	97.32545280456543	
3	90.16922998428345	pulse	0	t		0.16666667	0.0666666666667	0.0	48.0	0.0333333333333	0.1333333333333	0.0666666666667	98.92537784576416	
3	91.76915907859802	pulse	0	t		0.16666667	0.0666666666667	0.0	48.0	0.0333333333333	0.1333333333333	0.0666666666667	100.52530694007874	
3	93.18305397033691	response	0	r		0.16666667	0.0666666666667	0.0	48.0	0.0333333333333	0.1333333333333	0.0666666666667	101.93920183181763	
3	93.36890506744385	pulse	0	t		0.16666667	0.0666666666667	0.0	48.0	0.0333333333333	0.1333333333333	0.0666666666667	102.12505292892456	
3	94.96898102760315	pulse	0	t		0.16666667	0.0666666666667	0.0	48.0	0.0333333333333	0.1333333333333	0.0666666666667	103.72512888908386	
3	96.56876397132874	pulse	0	t		0.16666667	0.0666666666667	0.0	48.0	0.0333333333333	0.1333333333333	0.0666666666667	105.32491183280945	
3	98.16873788833618	pulse	0	t		0.16666667	0.0666666666667	0.0	48.0	0.0333333333333	0.1333333333333	0.0666666666667	106.9248857498169	
3	98.33053803443909	response	0	r		0.16666667	0.0666666666667	0.0	48.0	0.0333333333333	0.1333333333333	0.0666666666667	107.0866858959198	
3	99.7696180343628	pulse	0	t		0.16666667	0.0666666666667	0.0	48.0	0.0333333333333	0.1333333333333	0.0666666666667	108.5257658958435	
3	101.36952590942383	pulse	0	t		0.16666667	0.0666666666667	0.0	48.0	0.0333333333333	0.1333333333333	0.0666666666667	110.12567377090454	
3	101.42829298973083	response	0	r		0.16666667	0.0666666666667	0.0	48.0	0.0333333333333	0.1333333333333	0.0666666666667	110.18444085121155	
3	102.96941995620728	pulse	0	t		0.16666667	0.0666666666667	0.0	48.0	0.0333333333333	0.1333333333333	0.0666666666667	111.72556781768799	
3	104.00034809112549	response	0	r		0.16666667	0.0666666666667	0.0	48.0	0.0333333333333	0.1333333333333	0.0666666666667	112.7564959526062	
3	104.56928706169128	pulse	0	t		0.16666667	0.0666666666667	0.0	48.0	0.0333333333333	0.1333333333333	0.0666666666667	113.325434923172	
3	106.169193983078	pulse	0	t		0.16666667	0.0666666666667	0.0	48.0	0.0333333333333	0.1333333333333	0.0666666666667	114.92534184455872	
4	106.19936990737915	stim	0		0	-1.0	1.0	-1.0	72.0	0.0333333333333	0.1333333333333	0.0666666666667	114.95551776885986	16.00000309944153
4	107.12459588050842	response	0	r		-1.0	1.0	-1.0	72.0	0.0333333333333	0.1333333333333	0.0666666666667	115.88074374198914	
4	107.7745189666748	pulse	0	t		-1.0	1.0	-1.0	72.0	0.0333333333333	0.1333333333333	0.0666666666667	116.53066682815552	
4	109.37451696395874	pulse	0	t		-1.0	1.0	-1.0	72.0	0.0333333333333	0.1333333333333	0.0666666666667	118.13066482543945	
4	110.97454404830933	pulse	0	t		-1.0	1.0	-1.0	72.0	0.0333333333333	0.1333333333333	0.0666666666667	119.73069190979004	
4	112.57451391220093	pulse	0	t		-1.0	1.0	-1.0	72.0	0.0333333333333	0.1333333333333	0.0666666666667	121.33066177368164	
4	112.99949407577515	response	0	r		-1.0	1.0	-1.0	72.0	0.0333333333333	0.1333333333333	0.0666666666667	121.75564193725586	
4	114.17454195022583	pulse	0	t		-1.0	1.0	-1.0	72.0	0.0333333333333	0.1333333333333	0.0666666666667	122.93068981170654	
4	115.7744390964508	pulse	0	t		-1.0	1.0	-1.0	72.0	0.0333333333333	0.1333333333333	0.0666666666667	124.53058695793152	
4	117.37447690963745	pulse	0	t		-1.0	1.0	-1.0	72.0	0.0333333333333	0.1333333333333	0.0666666666667	126.13062477111816	
4	118.97444295883179	pulse	0	t		-1.0	1.0	-1.0	72.0	0.0333333333333	0.1333333333333	0.0666666666667	127.7305908203125	
4	119.49300193786621	response	0	r		-1.0	1.0	-1.0	72.0	0.0333333333333	0.1333333333333	0.0666666666667	128.24914979934692	
4	120.5745050907135	pulse	0	t		-1.0	1.0	-1.0	72.0	0.0333333333333	0.1333333333333	0.0666666666667	129.3306529521942	
4	122.17448401451111	pulse	0	t		-1.0	1.0	-1.0	72.0	0.0333333333333	0.1333333333333	0.0666666666667	130.93063187599182	
5	122.19937300682068	stim	0		0	0.16666667	0.0666666666667	90.0	88.0	0.0333333333333	0.1333333333333	0.0666666666667	130.9555208683014	23.991594076156616
5	123.76908802986145	pulse	0	t		0.16666667	0.0666666666667	90.0	88.0	0.0333333333333	0.1333333333333	0.0666666666667	132.52523589134216	
5	125.3690619468689	pulse	0	t		0.16666667	0.0666666666667	90.0	88.0	0.0333333333333	0.1333333333333	0.0666666666667	134.1252098083496	
5	125.89793491363525	response	0	r		0.16666667	0.0666666666667	90.0	88.0	0.0333333333333	0.1333333333333	0.0666666666667	134.65408277511597	
5	126.96898198127747	pulse	0	t		0.16666667	0.0666666666667	90.0	88.0	0.0333333333333	0.1333333333333	0.0666666666667	135.72512984275818	
5	128.5688180923462	pulse	0	t		0.16666667	0.0666666666667	90.0	88.0	0.0333333333333	0.1333333333333	0.0666666666667	137.3249659538269	
5	130.16877603530884	pulse	0	t		0.16666667	0.0666666666667	90.0	88.0	0.0333333333333	0.1333333333333	0.0666666666667	138.92492389678955	
5	130.17352604866028	response	0	r		0.16666667	0.0666666666667	90.0	88.0	0.0333333333333	0.1333333333333	0.0666666666667	138.929673910141	
5	131.76864504814148	pulse	0	t		0.16666667	0.0666666666667	90.0	88.0	0.0333333333333	0.1333333333333	0.0666666666667	140.5247929096222	
5	132.6736741065979	response	0	r		0.16666667	0.0666666666667	90.0	88.0	0.0333333333333	0.1333333333333	0.0666666666667	141.4298219680786	
5	133.3695170879364	pulse	0	t		0.16666667	0.0666666666667	90.0	88.0	0.0333333333333	0.1333333333333	0.0666666666667	142.12566494941711	
5	134.9694859981537	pulse	0	t		0.16666667	0.0666666666667	90.0	88.0	0.0333333333333	0.1333333333333	0.0666666666667	143.7256338596344	
5	135.8433849811554	response	0	r		0.16666667	0.0666666666667	90.0	88.0	0.0333333333333	0.1333333333333	0.0666666666667	144.5995328426361	
5	136.56931495666504	pulse	0	t		0.16666667	0.0666666666667	90.0	88.0	0.0333333333333	0.1333333333333	0.0666666666667	145.32546281814575	
5	138.16925287246704	pulse	0	t		0.16666667	0.0666666666667	90.0	88.0	0.0333333333333	0.1333333333333	0.0666666666667	146.92540073394775	
5	139.04519605636597	response	0	r		0.16666667	0.0666666666667	90.0	88.0	0.0333333333333	0.1333333333333	0.0666666666667	147.80134391784668	
5	139.76919102668762	pulse	0	t		0.16666667	0.0666666666667	90.0	88.0	0.0333333333333	0.1333333333333	0.0666666666667	148.52533888816833	
5	141.369038105011	pulse	0	t		0.16666667	0.0666666666667	90.0	88.0	0.0333333333333	0.1333333333333	0.0666666666667	150.1251859664917	
5	141.47986507415771	response	0	r		0.16666667	0.0666666666667	90.0	88.0	0.0333333333333	0.1333333333333	0.0666666666667	150.23601293563843	
5	142.9689269065857	pulse	0	t		0.16666667	0.0666666666667	90.0	88.0	0.0333333333333	0.1333333333333	0.0666666666667	151.7250747680664	
5	144.56892895698547	pulse	0	t		0.16666667	0.0666666666667	90.0	88.0	0.0333333333333	0.1333333333333	0.0666666666667	153.3250768184662	
5	145.08079504966736	response	0	r		0.16666667	0.0666666666667	90.0	88.0	0.0333333333333	0.1333333333333	0.0666666666667	153.83694291114807	
5	146.16882300376892	pulse	0	t		0.16666667	0.0666666666667	90.0	88.0	0.0333333333333	0.1333333333333	0.0666666666667	154.92497086524963	
6	146.1909670829773	stim	0		0	0.16666667	0.0666666666667	180.0	112.0	0.0333333333333	0.1333333333333	0.0666666666667	154.947114944458	24.008142948150635
6	147.76987600326538	pulse	0	t		0.16666667	0.0666666666667	180.0	112.0	0.0333333333333	0.1333333333333	0.0666666666667	156.5260238647461	
6	149.3697590827942	pulse	0	t		0.16666667	0.0666666666667	180.0	112.0	0.0333333333333	0.1333333333333	0.0666666666667	158.1259069442749	
6	150.9696559906006	pulse	0	t		0.16666667	0.0666666666667	180.0	112.0	0.0333333333333	0.1333333333333	0.0666666666667	159.7258038520813	
6	152.5693531036377	pulse	0	t		0.16666667	0.0666666666667	180.0	112.0	0.0333333333333	0.1333333333333	0.0666666666667	161.3255009651184	
6	154.16932010650635	pulse	0	t		0.16666667	0.0666666666667	180.0	112.0	0.0333333333333	0.1333333333333	0.0666666666667	162.92546796798706	
6	155.7531979084015	response	0	r		0.16666667	0.0666666666667	180.0	112.0	0.0333333333333	0.1333333333333	0.0666666666667	164.5093457698822	
6	155.76902389526367	pulse	0	t		0.16666667	0.0666666666667	180.0	112.0	0.0333333333333	0.1333333333333	0.0666666666667	164.52517175674438	
6	157.36912894248962	pulse	0	t		0.16666667	0.0666666666667	180.0	112.0	0.0333333333333	0.1333333333333	0.0666666666667	166.12527680397034	
6	158.96899700164795	pulse	0	t		0.16666667	0.0666666666667	180.0	112.0	0.0333333333333	0.1333333333333	0.0666666666667	167.72514486312866	
6	160.56890201568604	pulse	0	t		0.16666667	0.0666666666667	180.0	112.0	0.0333333333333	0.1333333333333	0.0666666666667	169.32504987716675	
6	162.04873299598694	response	0	r		0.16666667	0.0666666666667	180.0	112.0	0.0333333333333	0.1333333333333	0.0666666666667	170.80488085746765	
6	162.1686429977417	pulse	0	t		0.16666667	0.0666666666667	180.0	112.0	0.0333333333333	0.1333333333333	0.0666666666667	170.9247908592224	
6	163.7697410583496	pulse	0	t		0.16666667	0.0666666666667	180.0	112.0	0.0333333333333	0.1333333333333	0.0666666666667	172.52588891983032	
6	165.36973905563354	pulse	0	t		0.16666667	0.0666666666667	180.0	112.0	0.0333333333333	0.1333333333333	0.0666666666667	174.12588691711426	
6	166.52040195465088	response	0	r		0.16666667	0.0666666666667	180.0	112.0	0.0333333333333	0.1333333333333	0.0666666666667	175.2765498161316	
6	166.96961307525635	pulse	0	t		0.16666667	0.0666666666667	180.0	112.0	0.0333333333333	0.1333333333333	0.0666666666667	175.72576093673706	
6	168.56954097747803	pulse	0	t		0.16666667	0.0666666666667	180.0	112.0	0.0333333333333	0.1333333333333	0.0666666666667	177.32568883895874	
6	170.1132950782776	response	0	r		0.16666667	0.0666666666667	180.0	112.0	0.0333333333333	0.1333333333333	0.0666666666667	178.8694429397583	
6	170.16920495033264	pulse	0	t		0.16666667	0.0666666666667	180.0	112.0	0.0333333333333	0.1333333333333	0.0666666666667	178.92535281181335	
7	170.19911003112793	stim	0		0	-1.0	1.0	-1.0	136.0	0.0333333333333	0.1333333333333	0.0666666666667	178.95525789260864	15.999994993209839
7	171.7742600440979	pulse	0	t		-1.0	1.0	-1.0	136.0	0.0333333333333	0.1333333333333	0.0666666666667	180.5304079055786	
7	173.37431287765503	pulse	0	t		-1.0	1.0	-1.0	136.0	0.0333333333333	0.1333333333333	0.0666666666667	182.13046073913574	
7	174.97423005104065	pulse	0	t		-1.0	1.0	-1.0	136.0	0.0333333333333	0.1333333333333	0.0666666666667	183.73037791252136	
7	176.5742540359497	pulse	0	t		-1.0	1.0	-1.0	136.0	0.0333333333333	0.1333333333333	0.0666666666667	185.33040189743042	
7	177.6991798877716	response	0	r		-1.0	1.0	-1.0	136.0	0.0333333333333	0.1333333333333	0.0666666666667	186.45532774925232	
7	178.17417192459106	pulse	0	t		-1.0	1.0	-1.0	136.0	0.0333333333333	0.1333333333333	0.0666666666667	186.93031978607178	
7	179.77427887916565	pulse	0	t		-1.0	1.0	-1.0	136.0	0.0333333333333	0.1333333333333	0.0666666666667	188.53042674064636	
7	180.474200963974	response	0	r		-1.0	1.0	-1.0	136.0	0.0333333333333	0.1333333333333	0.0666666666667	189.2303488254547	
7	181.37418293952942	pulse	0	t		-1.0	1.0	-1.0	136.0	0.0333333333333	0.1333333333333	0.0666666666667	190.13033080101013	
7	182.97427892684937	pulse	0	t		-1.0	1.0	-1.0	136.0	0.0333333333333	0.1333333333333	0.0666666666667	191.73042678833008	
7	183.13249802589417	response	0	r		-1.0	1.0	-1.0	136.0	0.0333333333333	0.1333333333333	0.0666666666667	191.88864588737488	
7	184.57416796684265	pulse	0	t		-1.0	1.0	-1.0	136.0	0.0333333333333	0.1333333333333	0.0666666666667	193.33031582832336	
7	186.17429900169373	pulse	0	t		-1.0	1.0	-1.0	136.0	0.0333333333333	0.1333333333333	0.0666666666667	194.93044686317444	
8	186.19910502433777	stim	0		0	-1.0	1.0	-1.0	152.0	0.0333333333333	0.1333333333333	0.0666666666667	194.95525288581848	15.999845027923584
8	187.77427291870117	pulse	0	t		-1.0	1.0	-1.0	152.0	0.0333333333333	0.1333333333333	0.0666666666667	196.53042078018188	
8	188.2408549785614	response	0	r		-1.0	1.0	-1.0	152.0	0.0333333333333	0.1333333333333	0.0666666666667	196.99700284004211	
8	189.37412905693054	pulse	0	t		-1.0	1.0	-1.0	152.0	0.0333333333333	0.1333333333333	0.0666666666667	198.13027691841125	
8	190.9741849899292	pulse	0	t		-1.0	1.0	-1.0	152.0	0.0333333333333	0.1333333333333	0.0666666666667	199.7303328514099	
8	192.57429790496826	pulse	0	t		-1.0	1.0	-1.0	152.0	0.0333333333333	0.1333333333333	0.0666666666667	201.33044576644897	
8	193.12414002418518	response	0	r		-1.0	1.0	-1.0	152.0	0.0333333333333	0.1333333333333	0.0666666666667	201.8802878856659	
8	194.1741349697113	pulse	0	t		-1.0	1.0	-1.0	152.0	0.0333333333333	0.1333333333333	0.0666666666667	202.93028283119202	
8	195.63247203826904	response	0	r		-1.0	1.0	-1.0	152.0	0.0333333333333	0.1333333333333	0.0666666666667	204.38861989974976	
8	195.77416706085205	pulse	0	t		-1.0	1.0	-1.0	152.0	0.0333333333333	0.1333333333333	0.0666666666667	204.53031492233276	
8	197.37412190437317	pulse	0	t		-1.0	1.0	-1.0	152.0	0.0333333333333	0.1333333333333	0.0666666666667	206.13026976585388	
8	197.72410106658936	response	0	r		-1.0	1.0	-1.0	152.0	0.0333333333333	0.1333333333333	0.0666666666667	206.48024892807007	
8	198.9740869998932	pulse	0	t		-1.0	1.0	-1.0	152.0	0.0333333333333	0.1333333333333	0.0666666666667	207.7302348613739	
8	200.57409691810608	pulse	0	t		-1.0	1.0	-1.0	152.0	0.0333333333333	0.1333333333333	0.0666666666667	209.3302447795868	
8	202.17418909072876	pulse	0	t		-1.0	1.0	-1.0	152.0	0.0333333333333	0.1333333333333	0.0666666666667	210.93033695220947	
9	202.19895005226135	stim	0		0	0.16666667	0.0666666666667	180.0	168.0	0.0333333333333	0.1333333333333	0.0666666666667	210.95509791374207	23.999878883361816
9	203.47028398513794	response	0	r		0.16666667	0.0666666666667	180.0	168.0	0.0333333333333	0.1333333333333	0.0666666666667	212.22643184661865	
9	203.76922702789307	pulse	0	t		0.16666667	0.0666666666667	180.0	168.0	0.0333333333333	0.1333333333333	0.0666666666667	212.52537488937378	
9	205.36922907829285	pulse	0	t		0.16666667	0.0666666666667	180.0	168.0	0.0333333333333	0.1333333333333	0.0666666666667	214.12537693977356	
9	205.7332329750061	response	0	r		0.16666667	0.0666666666667	180.0	168.0	0.0333333333333	0.1333333333333	0.0666666666667	214.48938083648682	
9	206.96911001205444	pulse	0	t		0.16666667	0.0666666666667	180.0	168.0	0.0333333333333	0.1333333333333	0.0666666666667	215.72525787353516	
9	208.56900095939636	pulse	0	t		0.16666667	0.0666666666667	180.0	168.0	0.0333333333333	0.1333333333333	0.0666666666667	217.32514882087708	
9	209.62491989135742	response	0	r		0.16666667	0.0666666666667	180.0	168.0	0.0333333333333	0.1333333333333	0.0666666666667	218.38106775283813	
9	210.1688358783722	pulse	0	t		0.16666667	0.0666666666667	180.0	168.0	0.0333333333333	0.1333333333333	0.0666666666667	218.9249837398529	
9	211.7697310447693	pulse	0	t		0.16666667	0.0666666666667	180.0	168.0	0.0333333333333	0.1333333333333	0.0666666666667	220.52587890625	
9	213.36964297294617	pulse	0	t		0.16666667	0.0666666666667	180.0	168.0	0.0333333333333	0.1333333333333	0.0666666666667	222.12579083442688	
9	213.7765929698944	response	0	r		0.16666667	0.0666666666667	180.0	168.0	0.0333333333333	0.1333333333333	0.0666666666667	222.53274083137512	
9	214.9695429801941	pulse	0	t		0.16666667	0.0666666666667	180.0	168.0	0.0333333333333	0.1333333333333	0.0666666666667	223.7256908416748	
9	216.5695459842682	pulse	0	t		0.16666667	0.0666666666667	180.0	168.0	0.0333333333333	0.1333333333333	0.0666666666667	225.3256938457489	
9	218.1693880558014	pulse	0	t		0.16666667	0.0666666666667	180.0	168.0	0.0333333333333	0.1333333333333	0.0666666666667	226.9255359172821	
9	219.68132495880127	response	0	r		0.16666667	0.0666666666667	180.0	168.0	0.0333333333333	0.1333333333333	0.0666666666667	228.43747282028198	
9	219.76919198036194	pulse	0	t		0.16666667	0.0666666666667	180.0	168.0	0.0333333333333	0.1333333333333	0.0666666666667	228.52533984184265	
9	221.36920809745789	pulse	0	t		0.16666667	0.0666666666667	180.0	168.0	0.0333333333333	0.1333333333333	0.0666666666667	230.1253559589386	
9	222.9691081047058	pulse	0	t		0.16666667	0.0666666666667	180.0	168.0	0.0333333333333	0.1333333333333	0.0666666666667	231.72525596618652	
9	224.27099204063416	response	0	r		0.16666667	0.0666666666667	180.0	168.0	0.0333333333333	0.1333333333333	0.0666666666667	233.02713990211487	
9	224.56895995140076	pulse	0	t		0.16666667	0.0666666666667	180.0	168.0	0.0333333333333	0.1333333333333	0.0666666666667	233.32510781288147	
9	226.16894102096558	pulse	0	t		0.16666667	0.0666666666667	180.0	168.0	0.0333333333333	0.1333333333333	0.0666666666667	234.9250888824463	
10	226.19882893562317	stim	0		0	0.16666667	0.0666666666667	90.0	192.0	0.0333333333333	0.1333333333333	0.0666666666667	234.95497679710388	23.99155616760254
10	226.80683302879333	response	0	r		0.16666667	0.0666666666667	90.0	192.0	0.0333333333333	0.1333333333333	0.0666666666667	235.56298089027405	
10	227.76879906654358	pulse	0	t		0.16666667	0.0666666666667	90.0	192.0	0.0333333333333	0.1333333333333	0.0666666666667	236.5249469280243	
10	229.36973595619202	pulse	0	t		0.16666667	0.0666666666667	90.0	192.0	0.0333333333333	0.1333333333333	0.0666666666667	238.12588381767273	
10	230.96959590911865	pulse	0	t		0.16666667	0.0666666666667	90.0	192.0	0.0333333333333	0.1333333333333	0.0666666666667	239.72574377059937	
10	231.59756708145142	response	0	r		0.16666667	0.0666666666667	90.0	192.0	0.0333333333333	0.1333333333333	0.0666666666667	240.35371494293213	
10	232.56954193115234	pulse	0	t		0.16666667	0.0666666666667	90.0	192.0	0.0333333333333	0.1333333333333	0.0666666666667	241.32568979263306	
10	234.16939687728882	pulse	0	t		0.16666667	0.0666666666667	90.0	192.0	0.0333333333333	0.1333333333333	0.0666666666667	242.92554473876953	
10	235.24731588363647	response	0	r		0.16666667	0.0666666666667	90.0	192.0	0.0333333333333	0.1333333333333	0.0666666666667	244.0034637451172	
10	235.76925587654114	pulse	0	t		0.16666667	0.0666666666667	90.0	192.0	0.0333333333333	0.1333333333333	0.0666666666667	244.52540373802185	
10	237.36921191215515	pulse	0	t		0.16666667	0.0666666666667	90.0	192.0	0.0333333333333	0.1333333333333	0.0666666666667	246.12535977363586	
10	238.2781720161438	response	0	r		0.16666667	0.0666666666667	90.0	192.0	0.0333333333333	0.1333333333333	0.0666666666667	247.0343198776245	
10	238.9690968990326	pulse	0	t		0.16666667	0.0666666666667	90.0	192.0	0.0333333333333	0.1333333333333	0.0666666666667	247.7252447605133	
10	240.56902408599854	pulse	0	t		0.16666667	0.0666666666667	90.0	192.0	0.0333333333333	0.1333333333333	0.0666666666667	249.32517194747925	
10	241.02491188049316	response	0	r		0.16666667	0.0666666666667	90.0	192.0	0.0333333333333	0.1333333333333	0.0666666666667	249.78105974197388	
10	242.16895508766174	pulse	0	t		0.16666667	0.0666666666667	90.0	192.0	0.0333333333333	0.1333333333333	0.0666666666667	250.92510294914246	
10	243.76886892318726	pulse	0	t		0.16666667	0.0666666666667	90.0	192.0	0.0333333333333	0.1333333333333	0.0666666666667	252.52501678466797	
10	244.35175395011902	response	0	r		0.16666667	0.0666666666667	90.0	192.0	0.0333333333333	0.1333333333333	0.0666666666667	253.10790181159973	
10	245.3697190284729	pulse	0	t		0.16666667	0.0666666666667	90.0	192.0	0.0333333333333	0.1333333333333	0.0666666666667	254.1258668899536	
10	246.66168093681335	response	0	r		0.16666667	0.0666666666667	90.0	192.0	0.0333333333333	0.1333333333333	0.0666666666667	255.41782879829407	
10	246.9695360660553	pulse	0	t		0.16666667	0.0666666666667	90.0	192.0	0.0333333333333	0.1333333333333	0.0666666666667	255.725683927536	
10	248.56954908370972	pulse	0	t		0.16666667	0.0666666666667	90.0	192.0	0.0333333333333	0.1333333333333	0.0666666666667	257.32569694519043	
10	250.1694049835205	pulse	0	t		0.16666667	0.0666666666667	90.0	192.0	0.0333333333333	0.1333333333333	0.0666666666667	258.9255528450012	
11	250.1903851032257	stim	0		0	-1.0	1.0	-1.0	216.0	0.0333333333333	0.1333333333333	0.0666666666667	258.9465329647064	16.008189916610718
11	250.99886393547058	response	0	r		-1.0	1.0	-1.0	216.0	0.0333333333333	0.1333333333333	0.0666666666667	259.7550117969513	
11	251.77391600608826	pulse	0	t		-1.0	1.0	-1.0	216.0	0.0333333333333	0.1333333333333	0.0666666666667	260.53006386756897	
11	253.37388801574707	pulse	0	t		-1.0	1.0	-1.0	216.0	0.0333333333333	0.1333333333333	0.0666666666667	262.1300358772278	
11	254.97382497787476	pulse	0	t		-1.0	1.0	-1.0	216.0	0.0333333333333	0.1333333333333	0.0666666666667	263.72997283935547	
11	256.5739018917084	pulse	0	t		-1.0	1.0	-1.0	216.0	0.0333333333333	0.1333333333333	0.0666666666667	265.3300497531891	
11	258.17388010025024	pulse	0	t		-1.0	1.0	-1.0	216.0	0.0333333333333	0.1333333333333	0.0666666666667	266.93002796173096	
11	259.77395391464233	pulse	0	t		-1.0	1.0	-1.0	216.0	0.0333333333333	0.1333333333333	0.0666666666667	268.53010177612305	
11	260.073823928833	response	0	r		-1.0	1.0	-1.0	216.0	0.0333333333333	0.1333333333333	0.0666666666667	268.8299717903137	
11	261.3738329410553	pulse	0	t		-1.0	1.0	-1.0	216.0	0.0333333333333	0.1333333333333	0.0666666666667	270.129980802536	
11	262.97332406044006	pulse	0	t		-1.0	1.0	-1.0	216.0	0.0333333333333	0.1333333333333	0.0666666666667	271.7294719219208	
11	263.05663895606995	response	0	r		-1.0	1.0	-1.0	216.0	0.0333333333333	0.1333333333333	0.0666666666667	271.81278681755066	
11	264.57346510887146	pulse	0	t		-1.0	1.0	-1.0	216.0	0.0333333333333	0.1333333333333	0.0666666666667	273.3296129703522	
11	266.17379689216614	pulse	0	t		-1.0	1.0	-1.0	216.0	0.0333333333333	0.1333333333333	0.0666666666667	274.92994475364685	
12	266.1985750198364	stim	0		0	0.16666667	0.0666666666667	0.0	232.0	0.0333333333333	0.1333333333333	0.0666666666667	274.95472288131714	23.99158787727356
12	267.7694149017334	pulse	0	t		0.16666667	0.0666666666667	0.0	232.0	0.0333333333333	0.1333333333333	0.0666666666667	276.5255627632141	
12	268.69528889656067	response	0	r		0.16666667	0.0666666666667	0.0	232.0	0.0333333333333	0.1333333333333	0.0666666666667	277.4514367580414	
12	269.3692879676819	pulse	0	t		0.16666667	0.0666666666667	0.0	232.0	0.0333333333333	0.1333333333333	0.0666666666667	278.1254358291626	
12	270.9691638946533	pulse	0	t		0.16666667	0.0666666666667	0.0	232.0	0.0333333333333	0.1333333333333	0.0666666666667	279.72531175613403	
12	271.7661430835724	response	0	r		0.16666667	0.0666666666667	0.0	232.0	0.0333333333333	0.1333333333333	0.0666666666667	280.5222909450531	
12	272.5690360069275	pulse	0	t		0.16666667	0.0666666666667	0.0	232.0	0.0333333333333	0.1333333333333	0.0666666666667	281.3251838684082	
12	274.1689920425415	pulse	0	t		0.16666667	0.0666666666667	0.0	232.0	0.0333333333333	0.1333333333333	0.0666666666667	282.9251399040222	
12	275.76891899108887	pulse	0	t		0.16666667	0.0666666666667	0.0	232.0	0.0333333333333	0.1333333333333	0.0666666666667	284.5250668525696	
12	276.8478260040283	response	0	r		0.16666667	0.0666666666667	0.0	232.0	0.0333333333333	0.1333333333333	0.0666666666667	285.60397386550903	
12	277.3697519302368	pulse	0	t		0.16666667	0.0666666666667	0.0	232.0	0.0333333333333	0.1333333333333	0.0666666666667	286.12589979171753	
12	278.9696629047394	pulse	0	t		0.16666667	0.0666666666667	0.0	232.0	0.0333333333333	0.1333333333333	0.0666666666667	287.7258107662201	
12	280.5695769786835	pulse	0	t		0.16666667	0.0666666666667	0.0	232.0	0.0333333333333	0.1333333333333	0.0666666666667	289.3257248401642	
12	281.3305649757385	response	0	r		0.16666667	0.0666666666667	0.0	232.0	0.0333333333333	0.1333333333333	0.0666666666667	290.08671283721924	
12	282.1694920063019	pulse	0	t		0.16666667	0.0666666666667	0.0	232.0	0.0333333333333	0.1333333333333	0.0666666666667	290.9256398677826	
12	283.769406080246	pulse	0	t		0.16666667	0.0666666666667	0.0	232.0	0.0333333333333	0.1333333333333	0.0666666666667	292.5255539417267	
12	284.5983638763428	response	0	r		0.16666667	0.0666666666667	0.0	232.0	0.0333333333333	0.1333333333333	0.0666666666667	293.3545117378235	
12	285.3693130016327	pulse	0	t		0.16666667	0.0666666666667	0.0	232.0	0.0333333333333	0.1333333333333	0.0666666666667	294.1254608631134	
12	286.9692049026489	pulse	0	t		0.16666667	0.0666666666667	0.0	232.0	0.0333333333333	0.1333333333333	0.0666666666667	295.72535276412964	
12	288.56912899017334	pulse	0	t		0.16666667	0.0666666666667	0.0	232.0	0.0333333333333	0.1333333333333	0.0666666666667	297.32527685165405	
12	288.8750009536743	response	0	r		0.16666667	0.0666666666667	0.0	232.0	0.0333333333333	0.1333333333333	0.0666666666667	297.63114881515503	
12	290.16896510124207	pulse	0	t		0.16666667	0.0666666666667	0.0	232.0	0.0333333333333	0.1333333333333	0.0666666666667	298.9251129627228	
13	290.19016289711	stim	0		0	0.16666667	0.0666666666667	270.0	256.0	0.0333333333333	0.1333333333333	0.0666666666667	298.9463107585907	24.008172035217285
13	291.76891589164734	pulse	0	t		0.16666667	0.0666666666667	270.0	256.0	0.0333333333333	0.1333333333333	0.0666666666667	300.52506375312805	
13	293.3698060512543	pulse	0	t		0.16666667	0.0666666666667	270.0	256.0	0.0333333333333	0.1333333333333	0.0666666666667	302.125953912735	
13	294.96969199180603	pulse	0	t		0.16666667	0.0666666666667	270.0	256.0	0.0333333333333	0.1333333333333	0.0666666666667	303.72583985328674	
13	296.5696439743042	pulse	0	t		0.16666667	0.0666666666667	270.0	256.0	0.0333333333333	0.1333333333333	0.0666666666667	305.3257918357849	
13	298.1695439815521	pulse	0	t		0.16666667	0.0666666666667	270.0	256.0	0.0333333333333	0.1333333333333	0.0666666666667	306.92569184303284	
13	298.678484916687	response	0	r		0.16666667	0.0666666666667	270.0	256.0	0.0333333333333	0.1333333333333	0.0666666666667	307.4346327781677	
13	299.7694799900055	pulse	0	t		0.16666667	0.0666666666667	270.0	256.0	0.0333333333333	0.1333333333333	0.0666666666667	308.5256278514862	
13	301.3693039417267	pulse	0	t		0.16666667	0.0666666666667	270.0	256.0	0.0333333333333	0.1333333333333	0.0666666666667	310.1254518032074	
13	302.96928095817566	pulse	0	t		0.16666667	0.0666666666667	270.0	256.0	0.0333333333333	0.1333333333333	0.0666666666667	311.7254288196564	
13	304.56913900375366	pulse	0	t		0.16666667	0.0666666666667	270.0	256.0	0.0333333333333	0.1333333333333	0.0666666666667	313.3252868652344	
13	305.8569231033325	response	0	r		0.16666667	0.0666666666667	270.0	256.0	0.0333333333333	0.1333333333333	0.0666666666667	314.61307096481323	
13	306.16894698143005	pulse	0	t		0.16666667	0.0666666666667	270.0	256.0	0.0333333333333	0.1333333333333	0.0666666666667	314.92509484291077	
13	307.76889991760254	pulse	0	t		0.16666667	0.0666666666667	270.0	256.0	0.0333333333333	0.1333333333333	0.0666666666667	316.52504777908325	
13	309.3698420524597	pulse	0	t		0.16666667	0.0666666666667	270.0	256.0	0.0333333333333	0.1333333333333	0.0666666666667	318.12598991394043	
13	309.39664006233215	response	0	r		0.16666667	0.0666666666667	270.0	256.0	0.0333333333333	0.1333333333333	0.0666666666667	318.15278792381287	
13	310.9697439670563	pulse	0	t		0.16666667	0.0666666666667	270.0	256.0	0.0333333333333	0.1333333333333	0.0666666666667	319.725891828537	
13	312.56968092918396	pulse	0	t		0.16666667	0.0666666666667	270.0	256.0	0.0333333333333	0.1333333333333	0.0666666666667	321.3258287906647	
13	314.1695981025696	pulse	0	t		0.16666667	0.0666666666667	270.0	256.0	0.0333333333333	0.1333333333333	0.0666666666667	322.9257459640503	
14	314.19833493232727	stim	0		0								322.954482793808	24.324960947036743
14	315.77367901802063	pulse	0	t									324.52982687950134	
14	317.3735580444336	pulse	0	t									326.1297059059143	
14	318.97323989868164	pulse	0	t									327.72938776016235	
14	320.57330894470215	pulse	0	t									329.32945680618286	
14	322.17350602149963	pulse	0	t									330.92965388298035	
14	323.7734580039978	pulse	0	t									332.5296058654785	
14	325.3734641075134	pulse	0	t									334.12961196899414	
14	326.97341108322144	pulse	0	t									335.72955894470215	
14	328.5734839439392	pulse	0	t									337.3296318054199	
14	330.17344403266907	pulse	0	t									338.9295918941498	
14	331.7734200954437	pulse	0	t									340.52956795692444	
14	333.3734378814697	pulse	0	t									342.12958574295044	
14	334.9734389781952	pulse	0	t									343.7295868396759	
14	336.57346510887146	pulse	0	t									345.3296129703522	
14	338.1734719276428	pulse	0	t									346.92961978912354	
