trial_nr	onset	event_type	phase	response	nr_frames	bar_width	bar_refresh_time	bar_direction	start_time	bar_blank_duration	bar_blank_interval	bg_stim_refresh_time	onset_abs	duration
0	0.1589968204498291	stim	0		0								8.291064977645874	0.04919719696044922
0	0.1935558319091797	response	0	space									8.325623989105225	
1	0.20819401741027832	stim	0		0								8.340262174606323	42.383161783218384
1	42.579590797424316	pulse	0	t									50.71165895462036	
1	42.59135580062866	stim	1		0								50.72342395782471	0.0009531974792480469
1	42.59230899810791	stim	0		0								50.724377155303955	23.99896001815796
1	44.17478394508362	pulse	0	t									52.30685210227966	
1	45.29156184196472	response	0	e									53.42362999916077	
1	45.77470684051514	pulse	0	t									53.90677499771118	
1	47.374748945236206	pulse	0	t									55.50681710243225	
1	48.974846839904785	pulse	0	t									57.10691499710083	
1	50.476523876190186	response	0	e									58.60859203338623	
1	50.57471179962158	pulse	0	t									58.70677995681763	
1	52.17471098899841	pulse	0	t									60.30677914619446	
1	52.76834797859192	response	0	e									60.900416135787964	
1	53.77470898628235	pulse	0	t									61.906777143478394	
1	55.37479782104492	pulse	0	t									63.50686597824097	
1	56.974780797958374	pulse	0	t									65.10684895515442	
1	58.57462286949158	pulse	0	t									66.70669102668762	
1	60.083045959472656	response	0	e									68.2151141166687	
1	60.17474579811096	pulse	0	t									68.306813955307	
1	61.774817943573	pulse	0	t									69.90688610076904	
1	63.37473487854004	pulse	0	t									71.50680303573608	
1	63.93301296234131	response	0	e									72.06508111953735	
1	64.9747908115387	pulse	0	t									73.10685896873474	
1	66.57474684715271	pulse	0	t									74.70681500434875	
2	66.59126901626587	stim	0		0	0.16666667	0.0666666666667	270.0	24.0	0.0333333333333	0.1333333333333	0.0666666666667	74.72333717346191	23.999810934066772
2	68.17339086532593	pulse	0	t		0.16666667	0.0666666666667	270.0	24.0	0.0333333333333	0.1333333333333	0.0666666666667	76.30545902252197	
2	69.03629183769226	response	0	e		0.16666667	0.0666666666667	270.0	24.0	0.0333333333333	0.1333333333333	0.0666666666667	77.1683599948883	
2	69.77328300476074	pulse	0	t		0.16666667	0.0666666666667	270.0	24.0	0.0333333333333	0.1333333333333	0.0666666666667	77.90535116195679	
2	71.37310290336609	pulse	0	t		0.16666667	0.0666666666667	270.0	24.0	0.0333333333333	0.1333333333333	0.0666666666667	79.50517106056213	
2	72.06007599830627	response	0	e		0.16666667	0.0666666666667	270.0	24.0	0.0333333333333	0.1333333333333	0.0666666666667	80.19214415550232	
2	72.97398686408997	pulse	0	t		0.16666667	0.0666666666667	270.0	24.0	0.0333333333333	0.1333333333333	0.0666666666667	81.10605502128601	
2	74.57392191886902	pulse	0	t		0.16666667	0.0666666666667	270.0	24.0	0.0333333333333	0.1333333333333	0.0666666666667	82.70599007606506	
2	75.43689489364624	response	0	e		0.16666667	0.0666666666667	270.0	24.0	0.0333333333333	0.1333333333333	0.0666666666667	83.56896305084229	
2	76.17378997802734	pulse	0	t		0.16666667	0.0666666666667	270.0	24.0	0.0333333333333	0.1333333333333	0.0666666666667	84.30585813522339	
2	77.77382183074951	pulse	0	t		0.16666667	0.0666666666667	270.0	24.0	0.0333333333333	0.1333333333333	0.0666666666667	85.90588998794556	
2	79.37371301651001	pulse	0	t		0.16666667	0.0666666666667	270.0	24.0	0.0333333333333	0.1333333333333	0.0666666666667	87.50578117370605	
2	80.38741493225098	response	0	e		0.16666667	0.0666666666667	270.0	24.0	0.0333333333333	0.1333333333333	0.0666666666667	88.51948308944702	
2	80.97357082366943	pulse	0	t		0.16666667	0.0666666666667	270.0	24.0	0.0333333333333	0.1333333333333	0.0666666666667	89.10563898086548	
2	82.57349991798401	pulse	0	t		0.16666667	0.0666666666667	270.0	24.0	0.0333333333333	0.1333333333333	0.0666666666667	90.70556807518005	
2	84.17340588569641	pulse	0	t		0.16666667	0.0666666666667	270.0	24.0	0.0333333333333	0.1333333333333	0.0666666666667	92.30547404289246	
2	85.77326679229736	pulse	0	t		0.16666667	0.0666666666667	270.0	24.0	0.0333333333333	0.1333333333333	0.0666666666667	93.90533494949341	
2	87.37318301200867	pulse	0	t		0.16666667	0.0666666666667	270.0	24.0	0.0333333333333	0.1333333333333	0.0666666666667	95.50525116920471	
2	88.97410297393799	pulse	0	t		0.16666667	0.0666666666667	270.0	24.0	0.0333333333333	0.1333333333333	0.0666666666667	97.10617113113403	
2	90.57392501831055	pulse	0	t		0.16666667	0.0666666666667	270.0	24.0	0.0333333333333	0.1333333333333	0.0666666666667	98.70599317550659	
3	90.59107995033264	stim	0		0	0.16666667	0.0666666666667	0.0	48.0	0.0333333333333	0.1333333333333	0.0666666666667	98.72314810752869	23.999903917312622
3	91.43301701545715	response	0	e		0.16666667	0.0666666666667	0.0	48.0	0.0333333333333	0.1333333333333	0.0666666666667	99.5650851726532	
3	92.17389583587646	pulse	0	t		0.16666667	0.0666666666667	0.0	48.0	0.0333333333333	0.1333333333333	0.0666666666667	100.30596399307251	
3	93.67379593849182	response	0	e		0.16666667	0.0666666666667	0.0	48.0	0.0333333333333	0.1333333333333	0.0666666666667	101.80586409568787	
3	93.77365493774414	pulse	0	t		0.16666667	0.0666666666667	0.0	48.0	0.0333333333333	0.1333333333333	0.0666666666667	101.90572309494019	
3	95.37377691268921	pulse	0	t		0.16666667	0.0666666666667	0.0	48.0	0.0333333333333	0.1333333333333	0.0666666666667	103.50584506988525	
3	96.97365498542786	pulse	0	t		0.16666667	0.0666666666667	0.0	48.0	0.0333333333333	0.1333333333333	0.0666666666667	105.1057231426239	
3	98.5735650062561	pulse	0	t		0.16666667	0.0666666666667	0.0	48.0	0.0333333333333	0.1333333333333	0.0666666666667	106.70563316345215	
3	99.23750495910645	response	0	e		0.16666667	0.0666666666667	0.0	48.0	0.0333333333333	0.1333333333333	0.0666666666667	107.36957311630249	
3	100.17343783378601	pulse	0	t		0.16666667	0.0666666666667	0.0	48.0	0.0333333333333	0.1333333333333	0.0666666666667	108.30550599098206	
3	101.72538781166077	response	0	e		0.16666667	0.0666666666667	0.0	48.0	0.0333333333333	0.1333333333333	0.0666666666667	109.85745596885681	
3	101.77311897277832	pulse	0	t		0.16666667	0.0666666666667	0.0	48.0	0.0333333333333	0.1333333333333	0.0666666666667	109.90518712997437	
3	103.37330293655396	pulse	0	t		0.16666667	0.0666666666667	0.0	48.0	0.0333333333333	0.1333333333333	0.0666666666667	111.50537109375	
3	104.97423601150513	pulse	0	t		0.16666667	0.0666666666667	0.0	48.0	0.0333333333333	0.1333333333333	0.0666666666667	113.10630416870117	
3	106.57403779029846	pulse	0	t		0.16666667	0.0666666666667	0.0	48.0	0.0333333333333	0.1333333333333	0.0666666666667	114.7061059474945	
3	107.35199999809265	response	0	e		0.16666667	0.0666666666667	0.0	48.0	0.0333333333333	0.1333333333333	0.0666666666667	115.4840681552887	
3	108.17395281791687	pulse	0	t		0.16666667	0.0666666666667	0.0	48.0	0.0333333333333	0.1333333333333	0.0666666666667	116.30602097511292	
3	109.77387189865112	pulse	0	t		0.16666667	0.0666666666667	0.0	48.0	0.0333333333333	0.1333333333333	0.0666666666667	117.90594005584717	
3	110.24474596977234	response	0	e		0.16666667	0.0666666666667	0.0	48.0	0.0333333333333	0.1333333333333	0.0666666666667	118.37681412696838	
3	111.373694896698	pulse	0	t		0.16666667	0.0666666666667	0.0	48.0	0.0333333333333	0.1333333333333	0.0666666666667	119.50576305389404	
3	112.97365593910217	pulse	0	t		0.16666667	0.0666666666667	0.0	48.0	0.0333333333333	0.1333333333333	0.0666666666667	121.10572409629822	
3	114.57354998588562	pulse	0	t		0.16666667	0.0666666666667	0.0	48.0	0.0333333333333	0.1333333333333	0.0666666666667	122.70561814308167	
4	114.59098386764526	stim	0		0	-1.0	1.0	-1.0	72.0	0.0333333333333	0.1333333333333	0.0666666666667	122.72305202484131	16.008336067199707
4	116.17439699172974	pulse	0	t		-1.0	1.0	-1.0	72.0	0.0333333333333	0.1333333333333	0.0666666666667	124.30646514892578	
4	117.77438592910767	pulse	0	t		-1.0	1.0	-1.0	72.0	0.0333333333333	0.1333333333333	0.0666666666667	125.90645408630371	
4	119.21607995033264	response	0	e		-1.0	1.0	-1.0	72.0	0.0333333333333	0.1333333333333	0.0666666666667	127.34814810752869	
4	119.37434482574463	pulse	0	t		-1.0	1.0	-1.0	72.0	0.0333333333333	0.1333333333333	0.0666666666667	127.50641298294067	
4	120.97446990013123	pulse	0	t		-1.0	1.0	-1.0	72.0	0.0333333333333	0.1333333333333	0.0666666666667	129.10653805732727	
4	122.39116096496582	response	0	e		-1.0	1.0	-1.0	72.0	0.0333333333333	0.1333333333333	0.0666666666667	130.52322912216187	
4	122.57446694374084	pulse	0	t		-1.0	1.0	-1.0	72.0	0.0333333333333	0.1333333333333	0.0666666666667	130.7065351009369	
4	124.17442798614502	pulse	0	t		-1.0	1.0	-1.0	72.0	0.0333333333333	0.1333333333333	0.0666666666667	132.30649614334106	
4	125.27443099021912	response	0	e		-1.0	1.0	-1.0	72.0	0.0333333333333	0.1333333333333	0.0666666666667	133.40649914741516	
4	125.77452182769775	pulse	0	t		-1.0	1.0	-1.0	72.0	0.0333333333333	0.1333333333333	0.0666666666667	133.9065899848938	
4	127.37443089485168	pulse	0	t		-1.0	1.0	-1.0	72.0	0.0333333333333	0.1333333333333	0.0666666666667	135.50649905204773	
4	128.97443795204163	pulse	0	t		-1.0	1.0	-1.0	72.0	0.0333333333333	0.1333333333333	0.0666666666667	137.10650610923767	
4	130.5743658542633	pulse	0	t		-1.0	1.0	-1.0	72.0	0.0333333333333	0.1333333333333	0.0666666666667	138.70643401145935	
5	130.59931993484497	stim	0		0	0.16666667	0.0666666666667	90.0	88.0	0.0333333333333	0.1333333333333	0.0666666666667	138.73138809204102	23.999754905700684
5	132.1734938621521	pulse	0	t		0.16666667	0.0666666666667	90.0	88.0	0.0333333333333	0.1333333333333	0.0666666666667	140.30556201934814	
5	133.7733759880066	pulse	0	t		0.16666667	0.0666666666667	90.0	88.0	0.0333333333333	0.1333333333333	0.0666666666667	141.90544414520264	
5	134.74930596351624	response	0	e		0.16666667	0.0666666666667	90.0	88.0	0.0333333333333	0.1333333333333	0.0666666666667	142.88137412071228	
5	135.37325286865234	pulse	0	t		0.16666667	0.0666666666667	90.0	88.0	0.0333333333333	0.1333333333333	0.0666666666667	143.5053210258484	
5	136.9741349220276	pulse	0	t		0.16666667	0.0666666666667	90.0	88.0	0.0333333333333	0.1333333333333	0.0666666666667	145.10620307922363	
5	137.10002279281616	response	0	e		0.16666667	0.0666666666667	90.0	88.0	0.0333333333333	0.1333333333333	0.0666666666667	145.2320909500122	
5	138.5740339756012	pulse	0	t		0.16666667	0.0666666666667	90.0	88.0	0.0333333333333	0.1333333333333	0.0666666666667	146.70610213279724	
5	140.17396187782288	pulse	0	t		0.16666667	0.0666666666667	90.0	88.0	0.0333333333333	0.1333333333333	0.0666666666667	148.30603003501892	
5	140.56185483932495	response	0	e		0.16666667	0.0666666666667	90.0	88.0	0.0333333333333	0.1333333333333	0.0666666666667	148.693922996521	
5	141.77398896217346	pulse	0	t		0.16666667	0.0666666666667	90.0	88.0	0.0333333333333	0.1333333333333	0.0666666666667	149.9060571193695	
5	143.37384295463562	pulse	0	t		0.16666667	0.0666666666667	90.0	88.0	0.0333333333333	0.1333333333333	0.0666666666667	151.50591111183167	
5	144.97379684448242	pulse	0	t		0.16666667	0.0666666666667	90.0	88.0	0.0333333333333	0.1333333333333	0.0666666666667	153.10586500167847	
5	146.57366681098938	pulse	0	t		0.16666667	0.0666666666667	90.0	88.0	0.0333333333333	0.1333333333333	0.0666666666667	154.70573496818542	
5	147.13465189933777	response	0	e		0.16666667	0.0666666666667	90.0	88.0	0.0333333333333	0.1333333333333	0.0666666666667	155.2667200565338	
5	148.17356085777283	pulse	0	t		0.16666667	0.0666666666667	90.0	88.0	0.0333333333333	0.1333333333333	0.0666666666667	156.30562901496887	
5	149.77354097366333	pulse	0	t		0.16666667	0.0666666666667	90.0	88.0	0.0333333333333	0.1333333333333	0.0666666666667	157.90560913085938	
5	150.74648690223694	response	0	e		0.16666667	0.0666666666667	90.0	88.0	0.0333333333333	0.1333333333333	0.0666666666667	158.87855505943298	
5	151.37338995933533	pulse	0	t		0.16666667	0.0666666666667	90.0	88.0	0.0333333333333	0.1333333333333	0.0666666666667	159.50545811653137	
5	152.78134989738464	response	0	e		0.16666667	0.0666666666667	90.0	88.0	0.0333333333333	0.1333333333333	0.0666666666667	160.9134180545807	
5	152.97416496276855	pulse	0	t		0.16666667	0.0666666666667	90.0	88.0	0.0333333333333	0.1333333333333	0.0666666666667	161.1062331199646	
5	154.5742518901825	pulse	0	t		0.16666667	0.0666666666667	90.0	88.0	0.0333333333333	0.1333333333333	0.0666666666667	162.70632004737854	
6	154.59907484054565	stim	0		0	0.16666667	0.0666666666667	180.0	112.0	0.0333333333333	0.1333333333333	0.0666666666667	162.7311429977417	23.991642951965332
6	156.17414093017578	pulse	0	t		0.16666667	0.0666666666667	180.0	112.0	0.0333333333333	0.1333333333333	0.0666666666667	164.30620908737183	
6	157.77402782440186	pulse	0	t		0.16666667	0.0666666666667	180.0	112.0	0.0333333333333	0.1333333333333	0.0666666666667	165.9060959815979	
6	159.37396478652954	pulse	0	t		0.16666667	0.0666666666667	180.0	112.0	0.0333333333333	0.1333333333333	0.0666666666667	167.5060329437256	
6	160.9738528728485	pulse	0	t		0.16666667	0.0666666666667	180.0	112.0	0.0333333333333	0.1333333333333	0.0666666666667	169.10592103004456	
6	162.02777481079102	response	0	e		0.16666667	0.0666666666667	180.0	112.0	0.0333333333333	0.1333333333333	0.0666666666667	170.15984296798706	
6	162.57367300987244	pulse	0	t		0.16666667	0.0666666666667	180.0	112.0	0.0333333333333	0.1333333333333	0.0666666666667	170.70574116706848	
6	164.17351078987122	pulse	0	t		0.16666667	0.0666666666667	180.0	112.0	0.0333333333333	0.1333333333333	0.0666666666667	172.30557894706726	
6	165.7734339237213	pulse	0	t		0.16666667	0.0666666666667	180.0	112.0	0.0333333333333	0.1333333333333	0.0666666666667	173.90550208091736	
6	167.37329697608948	pulse	0	t		0.16666667	0.0666666666667	180.0	112.0	0.0333333333333	0.1333333333333	0.0666666666667	175.50536513328552	
6	168.93035197257996	response	0	e		0.16666667	0.0666666666667	180.0	112.0	0.0333333333333	0.1333333333333	0.0666666666667	177.062420129776	
6	168.97407579421997	pulse	0	t		0.16666667	0.0666666666667	180.0	112.0	0.0333333333333	0.1333333333333	0.0666666666667	177.10614395141602	
6	170.5741069316864	pulse	0	t		0.16666667	0.0666666666667	180.0	112.0	0.0333333333333	0.1333333333333	0.0666666666667	178.70617508888245	
6	172.17414689064026	pulse	0	t		0.16666667	0.0666666666667	180.0	112.0	0.0333333333333	0.1333333333333	0.0666666666667	180.3062150478363	
6	172.25751900672913	response	0	e		0.16666667	0.0666666666667	180.0	112.0	0.0333333333333	0.1333333333333	0.0666666666667	180.38958716392517	
6	173.77405190467834	pulse	0	t		0.16666667	0.0666666666667	180.0	112.0	0.0333333333333	0.1333333333333	0.0666666666667	181.9061200618744	
6	174.83799481391907	response	0	e		0.16666667	0.0666666666667	180.0	112.0	0.0333333333333	0.1333333333333	0.0666666666667	182.9700629711151	
6	175.37392783164978	pulse	0	t		0.16666667	0.0666666666667	180.0	112.0	0.0333333333333	0.1333333333333	0.0666666666667	183.50599598884583	
6	176.97376990318298	pulse	0	t		0.16666667	0.0666666666667	180.0	112.0	0.0333333333333	0.1333333333333	0.0666666666667	185.10583806037903	
6	177.3626708984375	response	0	e		0.16666667	0.0666666666667	180.0	112.0	0.0333333333333	0.1333333333333	0.0666666666667	185.49473905563354	
6	178.57358193397522	pulse	0	t		0.16666667	0.0666666666667	180.0	112.0	0.0333333333333	0.1333333333333	0.0666666666667	186.70565009117126	
7	178.590717792511	stim	0		0	-1.0	1.0	-1.0	136.0	0.0333333333333	0.1333333333333	0.0666666666667	186.72278594970703	16.00831699371338
7	180.17412400245667	pulse	0	t		-1.0	1.0	-1.0	136.0	0.0333333333333	0.1333333333333	0.0666666666667	188.3061921596527	
7	181.77418684959412	pulse	0	t		-1.0	1.0	-1.0	136.0	0.0333333333333	0.1333333333333	0.0666666666667	189.90625500679016	
7	183.37410688400269	pulse	0	t		-1.0	1.0	-1.0	136.0	0.0333333333333	0.1333333333333	0.0666666666667	191.50617504119873	
7	184.9760549068451	pulse	0	t		-1.0	1.0	-1.0	136.0	0.0333333333333	0.1333333333333	0.0666666666667	193.10812306404114	
7	186.5760018825531	pulse	0	t		-1.0	1.0	-1.0	136.0	0.0333333333333	0.1333333333333	0.0666666666667	194.70807003974915	
7	188.11581993103027	response	0	e		-1.0	1.0	-1.0	136.0	0.0333333333333	0.1333333333333	0.0666666666667	196.24788808822632	
7	188.17413687705994	pulse	0	t		-1.0	1.0	-1.0	136.0	0.0333333333333	0.1333333333333	0.0666666666667	196.30620503425598	
7	189.66773080825806	response	0	e		-1.0	1.0	-1.0	136.0	0.0333333333333	0.1333333333333	0.0666666666667	197.7997989654541	
7	189.7741038799286	pulse	0	t		-1.0	1.0	-1.0	136.0	0.0333333333333	0.1333333333333	0.0666666666667	197.90617203712463	
7	191.3741958141327	pulse	0	t		-1.0	1.0	-1.0	136.0	0.0333333333333	0.1333333333333	0.0666666666667	199.50626397132874	
7	192.97407388687134	pulse	0	t		-1.0	1.0	-1.0	136.0	0.0333333333333	0.1333333333333	0.0666666666667	201.10614204406738	
7	194.34920597076416	response	0	e		-1.0	1.0	-1.0	136.0	0.0333333333333	0.1333333333333	0.0666666666667	202.4812741279602	
7	194.57406878471375	pulse	0	t		-1.0	1.0	-1.0	136.0	0.0333333333333	0.1333333333333	0.0666666666667	202.7061369419098	
8	194.59903478622437	stim	0		0	-1.0	1.0	-1.0	152.0	0.0333333333333	0.1333333333333	0.0666666666667	202.7311029434204	15.999406099319458
8	196.17417287826538	pulse	0	t		-1.0	1.0	-1.0	152.0	0.0333333333333	0.1333333333333	0.0666666666667	204.30624103546143	
8	196.41564178466797	response	0	e		-1.0	1.0	-1.0	152.0	0.0333333333333	0.1333333333333	0.0666666666667	204.547709941864	
8	197.77411484718323	pulse	0	t		-1.0	1.0	-1.0	152.0	0.0333333333333	0.1333333333333	0.0666666666667	205.90618300437927	
8	199.3735978603363	pulse	0	t		-1.0	1.0	-1.0	152.0	0.0333333333333	0.1333333333333	0.0666666666667	207.50566601753235	
8	200.3070240020752	response	0	e		-1.0	1.0	-1.0	152.0	0.0333333333333	0.1333333333333	0.0666666666667	208.43909215927124	
8	200.97382497787476	pulse	0	t		-1.0	1.0	-1.0	152.0	0.0333333333333	0.1333333333333	0.0666666666667	209.1058931350708	
8	202.5740029811859	pulse	0	t		-1.0	1.0	-1.0	152.0	0.0333333333333	0.1333333333333	0.0666666666667	210.70607113838196	
8	203.18238401412964	response	0	e		-1.0	1.0	-1.0	152.0	0.0333333333333	0.1333333333333	0.0666666666667	211.31445217132568	
8	204.17406392097473	pulse	0	t		-1.0	1.0	-1.0	152.0	0.0333333333333	0.1333333333333	0.0666666666667	212.30613207817078	
8	205.2490108013153	response	0	e		-1.0	1.0	-1.0	152.0	0.0333333333333	0.1333333333333	0.0666666666667	213.38107895851135	
8	205.77401399612427	pulse	0	t		-1.0	1.0	-1.0	152.0	0.0333333333333	0.1333333333333	0.0666666666667	213.9060821533203	
8	207.3739538192749	pulse	0	t		-1.0	1.0	-1.0	152.0	0.0333333333333	0.1333333333333	0.0666666666667	215.50602197647095	
8	208.97391486167908	pulse	0	t		-1.0	1.0	-1.0	152.0	0.0333333333333	0.1333333333333	0.0666666666667	217.10598301887512	
8	210.57399487495422	pulse	0	t		-1.0	1.0	-1.0	152.0	0.0333333333333	0.1333333333333	0.0666666666667	218.70606303215027	
9	210.59844088554382	stim	0		0	0.16666667	0.0666666666667	180.0	168.0	0.0333333333333	0.1333333333333	0.0666666666667	218.73050904273987	23.99207592010498
9	212.17359685897827	pulse	0	t		0.16666667	0.0666666666667	180.0	168.0	0.0333333333333	0.1333333333333	0.0666666666667	220.30566501617432	
9	213.77353882789612	pulse	0	t		0.16666667	0.0666666666667	180.0	168.0	0.0333333333333	0.1333333333333	0.0666666666667	221.90560698509216	
9	213.95537900924683	response	0	e		0.16666667	0.0666666666667	180.0	168.0	0.0333333333333	0.1333333333333	0.0666666666667	222.08744716644287	
9	215.37339782714844	pulse	0	t		0.16666667	0.0666666666667	180.0	168.0	0.0333333333333	0.1333333333333	0.0666666666667	223.50546598434448	
9	216.97327589988708	pulse	0	t		0.16666667	0.0666666666667	180.0	168.0	0.0333333333333	0.1333333333333	0.0666666666667	225.10534405708313	
9	218.57422184944153	pulse	0	t		0.16666667	0.0666666666667	180.0	168.0	0.0333333333333	0.1333333333333	0.0666666666667	226.70629000663757	
9	220.17413878440857	pulse	0	t		0.16666667	0.0666666666667	180.0	168.0	0.0333333333333	0.1333333333333	0.0666666666667	228.30620694160461	
9	221.7739930152893	pulse	0	t		0.16666667	0.0666666666667	180.0	168.0	0.0333333333333	0.1333333333333	0.0666666666667	229.90606117248535	
9	223.37390899658203	pulse	0	t		0.16666667	0.0666666666667	180.0	168.0	0.0333333333333	0.1333333333333	0.0666666666667	231.50597715377808	
9	224.97382593154907	pulse	0	t		0.16666667	0.0666666666667	180.0	168.0	0.0333333333333	0.1333333333333	0.0666666666667	233.10589408874512	
9	226.57372784614563	pulse	0	t		0.16666667	0.0666666666667	180.0	168.0	0.0333333333333	0.1333333333333	0.0666666666667	234.70579600334167	
9	226.59447383880615	response	0	e		0.16666667	0.0666666666667	180.0	168.0	0.0333333333333	0.1333333333333	0.0666666666667	234.7265419960022	
9	228.17365384101868	pulse	0	t		0.16666667	0.0666666666667	180.0	168.0	0.0333333333333	0.1333333333333	0.0666666666667	236.30572199821472	
9	228.99354696273804	response	0	e		0.16666667	0.0666666666667	180.0	168.0	0.0333333333333	0.1333333333333	0.0666666666667	237.12561511993408	
9	229.77353191375732	pulse	0	t		0.16666667	0.0666666666667	180.0	168.0	0.0333333333333	0.1333333333333	0.0666666666667	237.90560007095337	
9	231.37349200248718	pulse	0	t		0.16666667	0.0666666666667	180.0	168.0	0.0333333333333	0.1333333333333	0.0666666666667	239.50556015968323	
9	231.60136699676514	response	0	e		0.16666667	0.0666666666667	180.0	168.0	0.0333333333333	0.1333333333333	0.0666666666667	239.73343515396118	
9	232.9743378162384	pulse	0	t		0.16666667	0.0666666666667	180.0	168.0	0.0333333333333	0.1333333333333	0.0666666666667	241.10640597343445	
9	234.57432198524475	pulse	0	t		0.16666667	0.0666666666667	180.0	168.0	0.0333333333333	0.1333333333333	0.0666666666667	242.7063901424408	
10	234.5905168056488	stim	0		0	0.16666667	0.0666666666667	90.0	192.0	0.0333333333333	0.1333333333333	0.0666666666667	242.72258496284485	24.008071184158325
10	234.9672110080719	response	0	e		0.16666667	0.0666666666667	90.0	192.0	0.0333333333333	0.1333333333333	0.0666666666667	243.09927916526794	
10	236.17412495613098	pulse	0	t		0.16666667	0.0666666666667	90.0	192.0	0.0333333333333	0.1333333333333	0.0666666666667	244.30619311332703	
10	237.70606684684753	response	0	e		0.16666667	0.0666666666667	90.0	192.0	0.0333333333333	0.1333333333333	0.0666666666667	245.83813500404358	
10	237.77389097213745	pulse	0	t		0.16666667	0.0666666666667	90.0	192.0	0.0333333333333	0.1333333333333	0.0666666666667	245.9059591293335	
10	239.37396788597107	pulse	0	t		0.16666667	0.0666666666667	90.0	192.0	0.0333333333333	0.1333333333333	0.0666666666667	247.50603604316711	
10	240.59057998657227	response	0	e		0.16666667	0.0666666666667	90.0	192.0	0.0333333333333	0.1333333333333	0.0666666666667	248.7226481437683	
10	240.97372889518738	pulse	0	t		0.16666667	0.0666666666667	90.0	192.0	0.0333333333333	0.1333333333333	0.0666666666667	249.10579705238342	
10	242.57372498512268	pulse	0	t		0.16666667	0.0666666666667	90.0	192.0	0.0333333333333	0.1333333333333	0.0666666666667	250.70579314231873	
10	243.73469281196594	response	0	e		0.16666667	0.0666666666667	90.0	192.0	0.0333333333333	0.1333333333333	0.0666666666667	251.866760969162	
10	244.17361497879028	pulse	0	t		0.16666667	0.0666666666667	90.0	192.0	0.0333333333333	0.1333333333333	0.0666666666667	252.30568313598633	
10	245.77357578277588	pulse	0	t		0.16666667	0.0666666666667	90.0	192.0	0.0333333333333	0.1333333333333	0.0666666666667	253.90564393997192	
10	247.37350583076477	pulse	0	t		0.16666667	0.0666666666667	90.0	192.0	0.0333333333333	0.1333333333333	0.0666666666667	255.50557398796082	
10	248.96237301826477	response	0	e		0.16666667	0.0666666666667	90.0	192.0	0.0333333333333	0.1333333333333	0.0666666666667	257.0944411754608	
10	248.9731388092041	pulse	0	t		0.16666667	0.0666666666667	90.0	192.0	0.0333333333333	0.1333333333333	0.0666666666667	257.10520696640015	
10	250.57429885864258	pulse	0	t		0.16666667	0.0666666666667	90.0	192.0	0.0333333333333	0.1333333333333	0.0666666666667	258.7063670158386	
10	251.36922192573547	response	0	e		0.16666667	0.0666666666667	90.0	192.0	0.0333333333333	0.1333333333333	0.0666666666667	259.5012900829315	
10	252.1740918159485	pulse	0	t		0.16666667	0.0666666666667	90.0	192.0	0.0333333333333	0.1333333333333	0.0666666666667	260.30615997314453	
10	253.77402687072754	pulse	0	t		0.16666667	0.0666666666667	90.0	192.0	0.0333333333333	0.1333333333333	0.0666666666667	261.9060950279236	
10	254.96998190879822	response	0	e		0.16666667	0.0666666666667	90.0	192.0	0.0333333333333	0.1333333333333	0.0666666666667	263.10205006599426	
10	255.37382292747498	pulse	0	t		0.16666667	0.0666666666667	90.0	192.0	0.0333333333333	0.1333333333333	0.0666666666667	263.505891084671	
10	256.9739079475403	pulse	0	t		0.16666667	0.0666666666667	90.0	192.0	0.0333333333333	0.1333333333333	0.0666666666667	265.1059761047363	
10	258.5737648010254	pulse	0	t		0.16666667	0.0666666666667	90.0	192.0	0.0333333333333	0.1333333333333	0.0666666666667	266.70583295822144	
11	258.59858798980713	stim	0		0	-1.0	1.0	-1.0	216.0	0.0333333333333	0.1333333333333	0.0666666666667	266.7306561470032	15.999615907669067
11	260.173761844635	pulse	0	t		-1.0	1.0	-1.0	216.0	0.0333333333333	0.1333333333333	0.0666666666667	268.30583000183105	
11	261.77371978759766	pulse	0	t		-1.0	1.0	-1.0	216.0	0.0333333333333	0.1333333333333	0.0666666666667	269.9057879447937	
11	263.37367582321167	pulse	0	t		-1.0	1.0	-1.0	216.0	0.0333333333333	0.1333333333333	0.0666666666667	271.5057439804077	
11	264.49867486953735	response	0	e		-1.0	1.0	-1.0	216.0	0.0333333333333	0.1333333333333	0.0666666666667	272.6307430267334	
11	264.97550797462463	pulse	0	t		-1.0	1.0	-1.0	216.0	0.0333333333333	0.1333333333333	0.0666666666667	273.1075761318207	
11	266.57566499710083	pulse	0	t		-1.0	1.0	-1.0	216.0	0.0333333333333	0.1333333333333	0.0666666666667	274.7077331542969	
11	268.1755459308624	pulse	0	t		-1.0	1.0	-1.0	216.0	0.0333333333333	0.1333333333333	0.0666666666667	276.3076140880585	
11	269.5486078262329	response	0	e		-1.0	1.0	-1.0	216.0	0.0333333333333	0.1333333333333	0.0666666666667	277.68067598342896	
11	269.7754888534546	pulse	0	t		-1.0	1.0	-1.0	216.0	0.0333333333333	0.1333333333333	0.0666666666667	277.90755701065063	
11	271.37544894218445	pulse	0	t		-1.0	1.0	-1.0	216.0	0.0333333333333	0.1333333333333	0.0666666666667	279.5075170993805	
11	272.97367787361145	pulse	0	t		-1.0	1.0	-1.0	216.0	0.0333333333333	0.1333333333333	0.0666666666667	281.1057460308075	
11	273.9320888519287	response	0	e		-1.0	1.0	-1.0	216.0	0.0333333333333	0.1333333333333	0.0666666666667	282.06415700912476	
11	274.57370495796204	pulse	0	t		-1.0	1.0	-1.0	216.0	0.0333333333333	0.1333333333333	0.0666666666667	282.7057731151581	
12	274.5982038974762	stim	0		0	0.16666667	0.0666666666667	0.0	232.0	0.0333333333333	0.1333333333333	0.0666666666667	282.73027205467224	23.99190902709961
12	276.17367792129517	pulse	0	t		0.16666667	0.0666666666667	0.0	232.0	0.0333333333333	0.1333333333333	0.0666666666667	284.3057460784912	
12	277.57560992240906	response	0	e		0.16666667	0.0666666666667	0.0	232.0	0.0333333333333	0.1333333333333	0.0666666666667	285.7076780796051	
12	277.77350401878357	pulse	0	t		0.16666667	0.0666666666667	0.0	232.0	0.0333333333333	0.1333333333333	0.0666666666667	285.9055721759796	
12	279.3735148906708	pulse	0	t		0.16666667	0.0666666666667	0.0	232.0	0.0333333333333	0.1333333333333	0.0666666666667	287.5055830478668	
12	280.08343601226807	response	0	e		0.16666667	0.0666666666667	0.0	232.0	0.0333333333333	0.1333333333333	0.0666666666667	288.2155041694641	
12	280.97434401512146	pulse	0	t		0.16666667	0.0666666666667	0.0	232.0	0.0333333333333	0.1333333333333	0.0666666666667	289.1064121723175	
12	282.5742859840393	pulse	0	t		0.16666667	0.0666666666667	0.0	232.0	0.0333333333333	0.1333333333333	0.0666666666667	290.70635414123535	
12	282.81614899635315	response	0	e		0.16666667	0.0666666666667	0.0	232.0	0.0333333333333	0.1333333333333	0.0666666666667	290.9482171535492	
12	284.17425990104675	pulse	0	t		0.16666667	0.0666666666667	0.0	232.0	0.0333333333333	0.1333333333333	0.0666666666667	292.3063280582428	
12	285.7741549015045	pulse	0	t		0.16666667	0.0666666666667	0.0	232.0	0.0333333333333	0.1333333333333	0.0666666666667	293.90622305870056	
12	286.5049879550934	response	0	e		0.16666667	0.0666666666667	0.0	232.0	0.0333333333333	0.1333333333333	0.0666666666667	294.63705611228943	
12	287.37401390075684	pulse	0	t		0.16666667	0.0666666666667	0.0	232.0	0.0333333333333	0.1333333333333	0.0666666666667	295.5060820579529	
12	288.97396087646484	pulse	0	t		0.16666667	0.0666666666667	0.0	232.0	0.0333333333333	0.1333333333333	0.0666666666667	297.1060290336609	
12	290.5738208293915	pulse	0	t		0.16666667	0.0666666666667	0.0	232.0	0.0333333333333	0.1333333333333	0.0666666666667	298.7058889865875	
12	292.1737627983093	pulse	0	t		0.16666667	0.0666666666667	0.0	232.0	0.0333333333333	0.1333333333333	0.0666666666667	300.30583095550537	
12	293.6767179965973	response	0	e		0.16666667	0.0666666666667	0.0	232.0	0.0333333333333	0.1333333333333	0.0666666666667	301.80878615379333	
12	293.7734498977661	pulse	0	t		0.16666667	0.0666666666667	0.0	232.0	0.0333333333333	0.1333333333333	0.0666666666667	301.90551805496216	
12	295.3735148906708	pulse	0	t		0.16666667	0.0666666666667	0.0	232.0	0.0333333333333	0.1333333333333	0.0666666666667	303.5055830478668	
12	296.9202129840851	response	0	e		0.16666667	0.0666666666667	0.0	232.0	0.0333333333333	0.1333333333333	0.0666666666667	305.0522811412811	
12	296.97422194480896	pulse	0	t		0.16666667	0.0666666666667	0.0	232.0	0.0333333333333	0.1333333333333	0.0666666666667	305.106290102005	
12	298.5743408203125	pulse	0	t		0.16666667	0.0666666666667	0.0	232.0	0.0333333333333	0.1333333333333	0.0666666666667	306.70640897750854	
13	298.5901129245758	stim	0		0	0.16666667	0.0666666666667	270.0	256.0	0.0333333333333	0.1333333333333	0.0666666666667	306.72218108177185	24.00821590423584
13	300.1742489337921	pulse	0	t		0.16666667	0.0666666666667	270.0	256.0	0.0333333333333	0.1333333333333	0.0666666666667	308.30631709098816	
13	300.45814394950867	response	0	e		0.16666667	0.0666666666667	270.0	256.0	0.0333333333333	0.1333333333333	0.0666666666667	308.5902121067047	
13	301.7741849422455	pulse	0	t		0.16666667	0.0666666666667	270.0	256.0	0.0333333333333	0.1333333333333	0.0666666666667	309.9062530994415	
13	301.79020285606384	response	0	e		0.16666667	0.0666666666667	270.0	256.0	0.0333333333333	0.1333333333333	0.0666666666667	309.9222710132599	
13	303.3740518093109	pulse	0	t		0.16666667	0.0666666666667	270.0	256.0	0.0333333333333	0.1333333333333	0.0666666666667	311.50611996650696	
13	304.9739489555359	pulse	0	t		0.16666667	0.0666666666667	270.0	256.0	0.0333333333333	0.1333333333333	0.0666666666667	313.10601711273193	
13	306.57377195358276	pulse	0	t		0.16666667	0.0666666666667	270.0	256.0	0.0333333333333	0.1333333333333	0.0666666666667	314.7058401107788	
13	308.173702955246	pulse	0	t		0.16666667	0.0666666666667	270.0	256.0	0.0333333333333	0.1333333333333	0.0666666666667	316.305771112442	
13	309.773619890213	pulse	0	t		0.16666667	0.0666666666667	270.0	256.0	0.0333333333333	0.1333333333333	0.0666666666667	317.90568804740906	
13	311.373557806015	pulse	0	t		0.16666667	0.0666666666667	270.0	256.0	0.0333333333333	0.1333333333333	0.0666666666667	319.50562596321106	
13	312.9744689464569	pulse	0	t		0.16666667	0.0666666666667	270.0	256.0	0.0333333333333	0.1333333333333	0.0666666666667	321.10653710365295	
13	313.89637994766235	response	0	e		0.16666667	0.0666666666667	270.0	256.0	0.0333333333333	0.1333333333333	0.0666666666667	322.0284481048584	
13	314.5743808746338	pulse	0	t		0.16666667	0.0666666666667	270.0	256.0	0.0333333333333	0.1333333333333	0.0666666666667	322.70644903182983	
13	316.17427587509155	pulse	0	t		0.16666667	0.0666666666667	270.0	256.0	0.0333333333333	0.1333333333333	0.0666666666667	324.3063440322876	
13	317.7741868495941	pulse	0	t		0.16666667	0.0666666666667	270.0	256.0	0.0333333333333	0.1333333333333	0.0666666666667	325.90625500679016	
13	317.79695892333984	response	0	e		0.16666667	0.0666666666667	270.0	256.0	0.0333333333333	0.1333333333333	0.0666666666667	325.9290270805359	
13	319.3741149902344	pulse	0	t		0.16666667	0.0666666666667	270.0	256.0	0.0333333333333	0.1333333333333	0.0666666666667	327.5061831474304	
13	320.97401189804077	pulse	0	t		0.16666667	0.0666666666667	270.0	256.0	0.0333333333333	0.1333333333333	0.0666666666667	329.1060800552368	
13	322.5738458633423	pulse	0	t		0.16666667	0.0666666666667	270.0	256.0	0.0333333333333	0.1333333333333	0.0666666666667	330.70591402053833	
14	322.59832882881165	stim	0		0								330.7303969860077	24.424962997436523
14	323.09010100364685	response	0	e									331.2221691608429	
14	324.17527294158936	pulse	0	t									332.3073410987854	
14	325.77525186538696	pulse	0	t									333.907320022583	
14	326.2401509284973	response	0	e									334.37221908569336	
14	327.373389005661	pulse	0	t									335.50545716285706	
14	328.3317189216614	response	0	e									336.4637870788574	
14	328.97349882125854	pulse	0	t									337.1055669784546	
14	330.57522201538086	pulse	0	t									338.7072901725769	
14	331.3067719936371	response	0	e									339.43884015083313	
14	332.1752178668976	pulse	0	t									340.3072860240936	
14	333.7752048969269	pulse	0	t									341.9072730541229	
14	335.375207901001	pulse	0	t									343.507276058197	
14	335.47336196899414	response	0	e									343.6054301261902	
14	336.9752428531647	pulse	0	t									345.1073110103607	
14	338.5751938819885	pulse	0	t									346.70726203918457	
14	340.1234188079834	response	0	e									348.25548696517944	
14	340.17511200904846	pulse	0	t									348.3071801662445	
14	341.77514481544495	pulse	0	t									349.907212972641	
14	342.27525186538696	response	0	e									350.407320022583	
14	343.37516498565674	pulse	0	t									351.5072331428528	
14	344.97344994544983	pulse	0	t									353.1055181026459	
14	346.5751919746399	pulse	0	t									354.70726013183594	
