trial_nr	onset	event_type	phase	response	nr_frames	bar_width	bar_refresh_time	bar_direction	start_time	bar_blank_duration	bar_blank_interval	bg_stim_refresh_time	onset_abs	duration
0	0.1834259033203125	stim	0		0								9.688846826553345	5.959122180938721
0	6.134535074234009	response	0	space									15.639955997467041	
1	6.142548084259033	stim	0		0								15.647969007492065	13.585275888442993
1	19.692378997802734	pulse	0	t									29.197799921035767	
1	19.727823972702026	stim	1		0								29.23324489593506	0.0007710456848144531
1	19.72859501838684	stim	0		0								29.234015941619873	24.002844095230103
1	21.28675603866577	pulse	0	t									30.792176961898804	
1	22.886791944503784	pulse	0	t									32.392212867736816	
1	23.336829900741577	response	0	b									32.84225082397461	
1	24.487009048461914	pulse	0	t									33.992429971694946	
1	25.695628881454468	response	0	b									35.2010498046875	
1	26.087340116500854	pulse	0	t									35.59276103973389	
1	27.687586069107056	pulse	0	t									37.19300699234009	
1	28.212675094604492	response	0	b									37.718096017837524	
1	29.287795066833496	pulse	0	t									38.79321599006653	
1	30.887955904006958	pulse	0	t									40.39337682723999	
1	32.48822903633118	pulse	0	t									41.99364995956421	
1	34.088557958602905	pulse	0	t									43.59397888183594	
1	35.688905000686646	pulse	0	t									45.19432592391968	
1	37.288952112197876	pulse	0	t									46.79437303543091	
1	37.54733490943909	response	0	b									47.05275583267212	
1	38.88932704925537	pulse	0	t									48.3947479724884	
1	40.48946499824524	pulse	0	t									49.99488592147827	
1	41.23122191429138	response	0	b									50.736642837524414	
1	42.08974099159241	pulse	0	t									51.59516191482544	
1	43.68995189666748	pulse	0	t									53.19537281990051	
2	43.73143911361694	stim	0		0	0.16666667	0.0666666666667	270.0	24.0	0.0333333333333	0.1333333333333	0.0666666666667	53.236860036849976	23.995333909988403
2	44.30173397064209	response	0	b		0.16666667	0.0666666666667	270.0	24.0	0.0333333333333	0.1333333333333	0.0666666666667	53.80715489387512	
2	45.28669309616089	pulse	0	t		0.16666667	0.0666666666667	270.0	24.0	0.0333333333333	0.1333333333333	0.0666666666667	54.79211401939392	
2	46.88673996925354	pulse	0	t		0.16666667	0.0666666666667	270.0	24.0	0.0333333333333	0.1333333333333	0.0666666666667	56.39216089248657	
2	48.378737926483154	response	0	b		0.16666667	0.0666666666667	270.0	24.0	0.0333333333333	0.1333333333333	0.0666666666667	57.88415884971619	
2	48.48662209510803	pulse	0	t		0.16666667	0.0666666666667	270.0	24.0	0.0333333333333	0.1333333333333	0.0666666666667	57.992043018341064	
2	50.0857470035553	pulse	0	t		0.16666667	0.0666666666667	270.0	24.0	0.0333333333333	0.1333333333333	0.0666666666667	59.59116792678833	
2	51.22984504699707	response	0	b		0.16666667	0.0666666666667	270.0	24.0	0.0333333333333	0.1333333333333	0.0666666666667	60.7352659702301	
2	51.685851097106934	pulse	0	t		0.16666667	0.0666666666667	270.0	24.0	0.0333333333333	0.1333333333333	0.0666666666667	61.191272020339966	
2	53.28584289550781	pulse	0	t		0.16666667	0.0666666666667	270.0	24.0	0.0333333333333	0.1333333333333	0.0666666666667	62.791263818740845	
2	54.88582801818848	pulse	0	t		0.16666667	0.0666666666667	270.0	24.0	0.0333333333333	0.1333333333333	0.0666666666667	64.39124894142151	
2	56.48597002029419	pulse	0	t		0.16666667	0.0666666666667	270.0	24.0	0.0333333333333	0.1333333333333	0.0666666666667	65.99139094352722	
2	57.88502597808838	response	0	b		0.16666667	0.0666666666667	270.0	24.0	0.0333333333333	0.1333333333333	0.0666666666667	67.39044690132141	
2	58.08590292930603	pulse	0	t		0.16666667	0.0666666666667	270.0	24.0	0.0333333333333	0.1333333333333	0.0666666666667	67.59132385253906	
2	59.68597888946533	pulse	0	t		0.16666667	0.0666666666667	270.0	24.0	0.0333333333333	0.1333333333333	0.0666666666667	69.19139981269836	
2	60.04391694068909	response	0	b		0.16666667	0.0666666666667	270.0	24.0	0.0333333333333	0.1333333333333	0.0666666666667	69.54933786392212	
2	61.28600597381592	pulse	0	t		0.16666667	0.0666666666667	270.0	24.0	0.0333333333333	0.1333333333333	0.0666666666667	70.79142689704895	
2	62.1049919128418	response	0	b		0.16666667	0.0666666666667	270.0	24.0	0.0333333333333	0.1333333333333	0.0666666666667	71.61041283607483	
2	62.8859429359436	pulse	0	t		0.16666667	0.0666666666667	270.0	24.0	0.0333333333333	0.1333333333333	0.0666666666667	72.39136385917664	
2	64.48602199554443	pulse	0	t		0.16666667	0.0666666666667	270.0	24.0	0.0333333333333	0.1333333333333	0.0666666666667	73.99144291877747	
2	66.08593988418579	pulse	0	t		0.16666667	0.0666666666667	270.0	24.0	0.0333333333333	0.1333333333333	0.0666666666667	75.59136080741882	
2	67.68595695495605	pulse	0	t		0.16666667	0.0666666666667	270.0	24.0	0.0333333333333	0.1333333333333	0.0666666666667	77.19137787818909	
3	67.72677302360535	stim	0		0	0.16666667	0.0666666666667	0.0	48.0	0.0333333333333	0.1333333333333	0.0666666666667	77.23219394683838	24.011836051940918
3	67.97694611549377	response	0	b		0.16666667	0.0666666666667	0.0	48.0	0.0333333333333	0.1333333333333	0.0666666666667	77.4823670387268	
3	69.28598594665527	pulse	0	t		0.16666667	0.0666666666667	0.0	48.0	0.0333333333333	0.1333333333333	0.0666666666667	78.7914068698883	
3	70.83403897285461	response	0	b		0.16666667	0.0666666666667	0.0	48.0	0.0333333333333	0.1333333333333	0.0666666666667	80.33945989608765	
3	70.88586592674255	pulse	0	t		0.16666667	0.0666666666667	0.0	48.0	0.0333333333333	0.1333333333333	0.0666666666667	80.39128684997559	
3	72.48599600791931	pulse	0	t		0.16666667	0.0666666666667	0.0	48.0	0.0333333333333	0.1333333333333	0.0666666666667	81.99141693115234	
3	73.11901593208313	response	0	b		0.16666667	0.0666666666667	0.0	48.0	0.0333333333333	0.1333333333333	0.0666666666667	82.62443685531616	
3	74.08603501319885	pulse	0	t		0.16666667	0.0666666666667	0.0	48.0	0.0333333333333	0.1333333333333	0.0666666666667	83.59145593643188	
3	75.68610906600952	pulse	0	t		0.16666667	0.0666666666667	0.0	48.0	0.0333333333333	0.1333333333333	0.0666666666667	85.19152998924255	
3	77.28613996505737	pulse	0	t		0.16666667	0.0666666666667	0.0	48.0	0.0333333333333	0.1333333333333	0.0666666666667	86.7915608882904	
3	78.88616895675659	pulse	0	t		0.16666667	0.0666666666667	0.0	48.0	0.0333333333333	0.1333333333333	0.0666666666667	88.39158987998962	
3	79.29907202720642	response	0	b		0.16666667	0.0666666666667	0.0	48.0	0.0333333333333	0.1333333333333	0.0666666666667	88.80449295043945	
3	80.48614811897278	pulse	0	t		0.16666667	0.0666666666667	0.0	48.0	0.0333333333333	0.1333333333333	0.0666666666667	89.99156904220581	
3	81.7091600894928	response	0	b		0.16666667	0.0666666666667	0.0	48.0	0.0333333333333	0.1333333333333	0.0666666666667	91.21458101272583	
3	82.08615899085999	pulse	0	t		0.16666667	0.0666666666667	0.0	48.0	0.0333333333333	0.1333333333333	0.0666666666667	91.59157991409302	
3	83.68615102767944	pulse	0	t		0.16666667	0.0666666666667	0.0	48.0	0.0333333333333	0.1333333333333	0.0666666666667	93.19157195091248	
3	85.28617000579834	pulse	0	t		0.16666667	0.0666666666667	0.0	48.0	0.0333333333333	0.1333333333333	0.0666666666667	94.79159092903137	
3	86.3852379322052	response	0	b		0.16666667	0.0666666666667	0.0	48.0	0.0333333333333	0.1333333333333	0.0666666666667	95.89065885543823	
3	86.8861780166626	pulse	0	t		0.16666667	0.0666666666667	0.0	48.0	0.0333333333333	0.1333333333333	0.0666666666667	96.39159893989563	
3	88.48622989654541	pulse	0	t		0.16666667	0.0666666666667	0.0	48.0	0.0333333333333	0.1333333333333	0.0666666666667	97.99165081977844	
3	88.828115940094	response	0	b		0.16666667	0.0666666666667	0.0	48.0	0.0333333333333	0.1333333333333	0.0666666666667	98.33353686332703	
3	90.08634495735168	pulse	0	t		0.16666667	0.0666666666667	0.0	48.0	0.0333333333333	0.1333333333333	0.0666666666667	99.59176588058472	
3	91.65035605430603	response	0	b		0.16666667	0.0666666666667	0.0	48.0	0.0333333333333	0.1333333333333	0.0666666666667	101.15577697753906	
3	91.68629097938538	pulse	0	t		0.16666667	0.0666666666667	0.0	48.0	0.0333333333333	0.1333333333333	0.0666666666667	101.19171190261841	
4	91.73860907554626	stim	0		0	-1.0	1.0	-1.0	72.0	0.0333333333333	0.1333333333333	0.0666666666667	101.2440299987793	15.994057893753052
4	93.28893399238586	pulse	0	t		-1.0	1.0	-1.0	72.0	0.0333333333333	0.1333333333333	0.0666666666667	102.7943549156189	
4	93.72236895561218	response	0	b		-1.0	1.0	-1.0	72.0	0.0333333333333	0.1333333333333	0.0666666666667	103.22778987884521	
4	94.88930010795593	pulse	0	t		-1.0	1.0	-1.0	72.0	0.0333333333333	0.1333333333333	0.0666666666667	104.39472103118896	
4	96.48952603340149	pulse	0	t		-1.0	1.0	-1.0	72.0	0.0333333333333	0.1333333333333	0.0666666666667	105.99494695663452	
4	97.39146089553833	response	0	b		-1.0	1.0	-1.0	72.0	0.0333333333333	0.1333333333333	0.0666666666667	106.89688181877136	
4	98.08972311019897	pulse	0	t		-1.0	1.0	-1.0	72.0	0.0333333333333	0.1333333333333	0.0666666666667	107.595144033432	
4	99.68988490104675	pulse	0	t		-1.0	1.0	-1.0	72.0	0.0333333333333	0.1333333333333	0.0666666666667	109.19530582427979	
4	101.29031991958618	pulse	0	t		-1.0	1.0	-1.0	72.0	0.0333333333333	0.1333333333333	0.0666666666667	110.79574084281921	
4	102.89050102233887	pulse	0	t		-1.0	1.0	-1.0	72.0	0.0333333333333	0.1333333333333	0.0666666666667	112.3959219455719	
4	103.30717611312866	response	0	b		-1.0	1.0	-1.0	72.0	0.0333333333333	0.1333333333333	0.0666666666667	112.8125970363617	
4	104.49072289466858	pulse	0	t		-1.0	1.0	-1.0	72.0	0.0333333333333	0.1333333333333	0.0666666666667	113.99614381790161	
4	106.09082293510437	pulse	0	t		-1.0	1.0	-1.0	72.0	0.0333333333333	0.1333333333333	0.0666666666667	115.5962438583374	
4	107.69112205505371	pulse	0	t		-1.0	1.0	-1.0	72.0	0.0333333333333	0.1333333333333	0.0666666666667	117.19654297828674	
5	107.73266696929932	stim	0		0	0.16666667	0.0666666666667	90.0	88.0	0.0333333333333	0.1333333333333	0.0666666666667	117.23808789253235	23.995249032974243
5	109.2865219116211	pulse	0	t		0.16666667	0.0666666666667	90.0	88.0	0.0333333333333	0.1333333333333	0.0666666666667	118.79194283485413	
5	110.79745411872864	response	0	b		0.16666667	0.0666666666667	90.0	88.0	0.0333333333333	0.1333333333333	0.0666666666667	120.30287504196167	
5	110.88639092445374	pulse	0	t		0.16666667	0.0666666666667	90.0	88.0	0.0333333333333	0.1333333333333	0.0666666666667	120.39181184768677	
5	112.48649001121521	pulse	0	t		0.16666667	0.0666666666667	90.0	88.0	0.0333333333333	0.1333333333333	0.0666666666667	121.99191093444824	
5	113.82357406616211	response	0	b		0.16666667	0.0666666666667	90.0	88.0	0.0333333333333	0.1333333333333	0.0666666666667	123.32899498939514	
5	114.08645606040955	pulse	0	t		0.16666667	0.0666666666667	90.0	88.0	0.0333333333333	0.1333333333333	0.0666666666667	123.59187698364258	
5	115.68653798103333	pulse	0	t		0.16666667	0.0666666666667	90.0	88.0	0.0333333333333	0.1333333333333	0.0666666666667	125.19195890426636	
5	117.28665208816528	pulse	0	t		0.16666667	0.0666666666667	90.0	88.0	0.0333333333333	0.1333333333333	0.0666666666667	126.79207301139832	
5	118.6596839427948	response	0	b		0.16666667	0.0666666666667	90.0	88.0	0.0333333333333	0.1333333333333	0.0666666666667	128.16510486602783	
5	118.88656806945801	pulse	0	t		0.16666667	0.0666666666667	90.0	88.0	0.0333333333333	0.1333333333333	0.0666666666667	128.39198899269104	
5	120.48662304878235	pulse	0	t		0.16666667	0.0666666666667	90.0	88.0	0.0333333333333	0.1333333333333	0.0666666666667	129.99204397201538	
5	121.18563604354858	response	0	b		0.16666667	0.0666666666667	90.0	88.0	0.0333333333333	0.1333333333333	0.0666666666667	130.69105696678162	
5	122.08664011955261	pulse	0	t		0.16666667	0.0666666666667	90.0	88.0	0.0333333333333	0.1333333333333	0.0666666666667	131.59206104278564	
5	123.58072400093079	response	0	b		0.16666667	0.0666666666667	90.0	88.0	0.0333333333333	0.1333333333333	0.0666666666667	133.08614492416382	
5	123.68657088279724	pulse	0	t		0.16666667	0.0666666666667	90.0	88.0	0.0333333333333	0.1333333333333	0.0666666666667	133.19199180603027	
5	125.28670692443848	pulse	0	t		0.16666667	0.0666666666667	90.0	88.0	0.0333333333333	0.1333333333333	0.0666666666667	134.7921278476715	
5	125.59384393692017	response	0	b		0.16666667	0.0666666666667	90.0	88.0	0.0333333333333	0.1333333333333	0.0666666666667	135.0992648601532	
5	126.88672494888306	pulse	0	t		0.16666667	0.0666666666667	90.0	88.0	0.0333333333333	0.1333333333333	0.0666666666667	136.3921458721161	
5	128.09470295906067	response	0	b		0.16666667	0.0666666666667	90.0	88.0	0.0333333333333	0.1333333333333	0.0666666666667	137.6001238822937	
5	128.48669290542603	pulse	0	t		0.16666667	0.0666666666667	90.0	88.0	0.0333333333333	0.1333333333333	0.0666666666667	137.99211382865906	
5	130.08676195144653	pulse	0	t		0.16666667	0.0666666666667	90.0	88.0	0.0333333333333	0.1333333333333	0.0666666666667	139.59218287467957	
5	131.68674898147583	pulse	0	t		0.16666667	0.0666666666667	90.0	88.0	0.0333333333333	0.1333333333333	0.0666666666667	141.19216990470886	
6	131.72791600227356	stim	0		0	0.16666667	0.0666666666667	180.0	112.0	0.0333333333333	0.1333333333333	0.0666666666667	141.2333369255066	24.003623008728027
6	133.28680300712585	pulse	0	t		0.16666667	0.0666666666667	180.0	112.0	0.0333333333333	0.1333333333333	0.0666666666667	142.7922239303589	
6	134.20081305503845	response	0	b		0.16666667	0.0666666666667	180.0	112.0	0.0333333333333	0.1333333333333	0.0666666666667	143.70623397827148	
6	134.88679599761963	pulse	0	t		0.16666667	0.0666666666667	180.0	112.0	0.0333333333333	0.1333333333333	0.0666666666667	144.39221692085266	
6	136.48685598373413	pulse	0	t		0.16666667	0.0666666666667	180.0	112.0	0.0333333333333	0.1333333333333	0.0666666666667	145.99227690696716	
6	137.65486001968384	response	0	b		0.16666667	0.0666666666667	180.0	112.0	0.0333333333333	0.1333333333333	0.0666666666667	147.16028094291687	
6	138.08678007125854	pulse	0	t		0.16666667	0.0666666666667	180.0	112.0	0.0333333333333	0.1333333333333	0.0666666666667	147.59220099449158	
6	139.6868588924408	pulse	0	t		0.16666667	0.0666666666667	180.0	112.0	0.0333333333333	0.1333333333333	0.0666666666667	149.19227981567383	
6	141.28690600395203	pulse	0	t		0.16666667	0.0666666666667	180.0	112.0	0.0333333333333	0.1333333333333	0.0666666666667	150.79232692718506	
6	141.84284901618958	response	0	b		0.16666667	0.0666666666667	180.0	112.0	0.0333333333333	0.1333333333333	0.0666666666667	151.3482699394226	
6	142.88693499565125	pulse	0	t		0.16666667	0.0666666666667	180.0	112.0	0.0333333333333	0.1333333333333	0.0666666666667	152.39235591888428	
6	144.48703002929688	pulse	0	t		0.16666667	0.0666666666667	180.0	112.0	0.0333333333333	0.1333333333333	0.0666666666667	153.9924509525299	
6	144.76693606376648	response	0	b		0.16666667	0.0666666666667	180.0	112.0	0.0333333333333	0.1333333333333	0.0666666666667	154.2723569869995	
6	146.08703303337097	pulse	0	t		0.16666667	0.0666666666667	180.0	112.0	0.0333333333333	0.1333333333333	0.0666666666667	155.592453956604	
6	147.68607902526855	pulse	0	t		0.16666667	0.0666666666667	180.0	112.0	0.0333333333333	0.1333333333333	0.0666666666667	157.1914999485016	
6	147.71384501457214	response	0	b		0.16666667	0.0666666666667	180.0	112.0	0.0333333333333	0.1333333333333	0.0666666666667	157.21926593780518	
6	149.2870969772339	pulse	0	t		0.16666667	0.0666666666667	180.0	112.0	0.0333333333333	0.1333333333333	0.0666666666667	158.79251790046692	
6	150.07103490829468	response	0	b		0.16666667	0.0666666666667	180.0	112.0	0.0333333333333	0.1333333333333	0.0666666666667	159.5764558315277	
6	150.8860960006714	pulse	0	t		0.16666667	0.0666666666667	180.0	112.0	0.0333333333333	0.1333333333333	0.0666666666667	160.39151692390442	
6	152.22104597091675	response	0	b		0.16666667	0.0666666666667	180.0	112.0	0.0333333333333	0.1333333333333	0.0666666666667	161.72646689414978	
6	152.48600697517395	pulse	0	t		0.16666667	0.0666666666667	180.0	112.0	0.0333333333333	0.1333333333333	0.0666666666667	161.99142789840698	
6	154.0861780643463	pulse	0	t		0.16666667	0.0666666666667	180.0	112.0	0.0333333333333	0.1333333333333	0.0666666666667	163.59159898757935	
6	155.33714509010315	response	0	b		0.16666667	0.0666666666667	180.0	112.0	0.0333333333333	0.1333333333333	0.0666666666667	164.84256601333618	
6	155.68602800369263	pulse	0	t		0.16666667	0.0666666666667	180.0	112.0	0.0333333333333	0.1333333333333	0.0666666666667	165.19144892692566	
7	155.7315390110016	stim	0		0	-1.0	1.0	-1.0	136.0	0.0333333333333	0.1333333333333	0.0666666666667	165.23695993423462	16.002294063568115
7	157.29033303260803	pulse	0	t		-1.0	1.0	-1.0	136.0	0.0333333333333	0.1333333333333	0.0666666666667	166.79575395584106	
7	158.89044904708862	pulse	0	t		-1.0	1.0	-1.0	136.0	0.0333333333333	0.1333333333333	0.0666666666667	168.39586997032166	
7	160.49066996574402	pulse	0	t		-1.0	1.0	-1.0	136.0	0.0333333333333	0.1333333333333	0.0666666666667	169.99609088897705	
7	160.82407307624817	response	0	b		-1.0	1.0	-1.0	136.0	0.0333333333333	0.1333333333333	0.0666666666667	170.3294939994812	
7	162.09099006652832	pulse	0	t		-1.0	1.0	-1.0	136.0	0.0333333333333	0.1333333333333	0.0666666666667	171.59641098976135	
7	163.10773706436157	response	0	b		-1.0	1.0	-1.0	136.0	0.0333333333333	0.1333333333333	0.0666666666667	172.6131579875946	
7	163.69117999076843	pulse	0	t		-1.0	1.0	-1.0	136.0	0.0333333333333	0.1333333333333	0.0666666666667	173.19660091400146	
7	165.08295702934265	response	0	b		-1.0	1.0	-1.0	136.0	0.0333333333333	0.1333333333333	0.0666666666667	174.58837795257568	
7	165.29140210151672	pulse	0	t		-1.0	1.0	-1.0	136.0	0.0333333333333	0.1333333333333	0.0666666666667	174.79682302474976	
7	166.8916220664978	pulse	0	t		-1.0	1.0	-1.0	136.0	0.0333333333333	0.1333333333333	0.0666666666667	176.39704298973083	
7	167.13339591026306	response	0	b		-1.0	1.0	-1.0	136.0	0.0333333333333	0.1333333333333	0.0666666666667	176.6388168334961	
7	168.491858959198	pulse	0	t		-1.0	1.0	-1.0	136.0	0.0333333333333	0.1333333333333	0.0666666666667	177.99727988243103	
7	169.650456905365	response	0	b		-1.0	1.0	-1.0	136.0	0.0333333333333	0.1333333333333	0.0666666666667	179.15587782859802	
7	170.09201908111572	pulse	0	t		-1.0	1.0	-1.0	136.0	0.0333333333333	0.1333333333333	0.0666666666667	179.59744000434875	
7	171.69235706329346	pulse	0	t		-1.0	1.0	-1.0	136.0	0.0333333333333	0.1333333333333	0.0666666666667	181.1977779865265	
8	171.7338330745697	stim	0		0	-1.0	1.0	-1.0	152.0	0.0333333333333	0.1333333333333	0.0666666666667	181.23925399780273	16.002437829971313
8	172.2758870124817	response	0	b		-1.0	1.0	-1.0	152.0	0.0333333333333	0.1333333333333	0.0666666666667	181.78130793571472	
8	173.29266500473022	pulse	0	t		-1.0	1.0	-1.0	152.0	0.0333333333333	0.1333333333333	0.0666666666667	182.79808592796326	
8	174.8863570690155	pulse	0	t		-1.0	1.0	-1.0	152.0	0.0333333333333	0.1333333333333	0.0666666666667	184.39177799224854	
8	175.0863471031189	response	0	b		-1.0	1.0	-1.0	152.0	0.0333333333333	0.1333333333333	0.0666666666667	184.59176802635193	
8	176.4865620136261	pulse	0	t		-1.0	1.0	-1.0	152.0	0.0333333333333	0.1333333333333	0.0666666666667	185.99198293685913	
8	178.0867838859558	pulse	0	t		-1.0	1.0	-1.0	152.0	0.0333333333333	0.1333333333333	0.0666666666667	187.59220480918884	
8	179.68708205223083	pulse	0	t		-1.0	1.0	-1.0	152.0	0.0333333333333	0.1333333333333	0.0666666666667	189.19250297546387	
8	181.2872679233551	pulse	0	t		-1.0	1.0	-1.0	152.0	0.0333333333333	0.1333333333333	0.0666666666667	190.79268884658813	
8	182.17730808258057	response	0	b		-1.0	1.0	-1.0	152.0	0.0333333333333	0.1333333333333	0.0666666666667	191.6827290058136	
8	182.88745188713074	pulse	0	t		-1.0	1.0	-1.0	152.0	0.0333333333333	0.1333333333333	0.0666666666667	192.39287281036377	
8	184.4876410961151	pulse	0	t		-1.0	1.0	-1.0	152.0	0.0333333333333	0.1333333333333	0.0666666666667	193.99306201934814	
8	184.93589305877686	response	0	b		-1.0	1.0	-1.0	152.0	0.0333333333333	0.1333333333333	0.0666666666667	194.4413139820099	
8	186.08797192573547	pulse	0	t		-1.0	1.0	-1.0	152.0	0.0333333333333	0.1333333333333	0.0666666666667	195.5933928489685	
8	187.61143398284912	response	0	b		-1.0	1.0	-1.0	152.0	0.0333333333333	0.1333333333333	0.0666666666667	197.11685490608215	
8	187.68816089630127	pulse	0	t		-1.0	1.0	-1.0	152.0	0.0333333333333	0.1333333333333	0.0666666666667	197.1935818195343	
9	187.73627090454102	stim	0		0	0.16666667	0.0666666666667	180.0	168.0	0.0333333333333	0.1333333333333	0.0666666666667	197.24169182777405	24.003523111343384
9	189.28651189804077	pulse	0	t		0.16666667	0.0666666666667	180.0	168.0	0.0333333333333	0.1333333333333	0.0666666666667	198.7919328212738	
9	190.88650488853455	pulse	0	t		0.16666667	0.0666666666667	180.0	168.0	0.0333333333333	0.1333333333333	0.0666666666667	200.39192581176758	
9	192.4865050315857	pulse	0	t		0.16666667	0.0666666666667	180.0	168.0	0.0333333333333	0.1333333333333	0.0666666666667	201.99192595481873	
9	194.08651900291443	pulse	0	t		0.16666667	0.0666666666667	180.0	168.0	0.0333333333333	0.1333333333333	0.0666666666667	203.59193992614746	
9	195.67555689811707	response	0	b		0.16666667	0.0666666666667	180.0	168.0	0.0333333333333	0.1333333333333	0.0666666666667	205.1809778213501	
9	195.6863660812378	pulse	0	t		0.16666667	0.0666666666667	180.0	168.0	0.0333333333333	0.1333333333333	0.0666666666667	205.19178700447083	
9	197.2865719795227	pulse	0	t		0.16666667	0.0666666666667	180.0	168.0	0.0333333333333	0.1333333333333	0.0666666666667	206.79199290275574	
9	198.88661909103394	pulse	0	t		0.16666667	0.0666666666667	180.0	168.0	0.0333333333333	0.1333333333333	0.0666666666667	208.39204001426697	
9	200.48662090301514	pulse	0	t		0.16666667	0.0666666666667	180.0	168.0	0.0333333333333	0.1333333333333	0.0666666666667	209.99204182624817	
9	202.08665490150452	pulse	0	t		0.16666667	0.0666666666667	180.0	168.0	0.0333333333333	0.1333333333333	0.0666666666667	211.59207582473755	
9	203.68661904335022	pulse	0	t		0.16666667	0.0666666666667	180.0	168.0	0.0333333333333	0.1333333333333	0.0666666666667	213.19203996658325	
9	203.87856101989746	response	0	b		0.16666667	0.0666666666667	180.0	168.0	0.0333333333333	0.1333333333333	0.0666666666667	213.3839819431305	
9	205.28663611412048	pulse	0	t		0.16666667	0.0666666666667	180.0	168.0	0.0333333333333	0.1333333333333	0.0666666666667	214.79205703735352	
9	206.05371189117432	response	0	b		0.16666667	0.0666666666667	180.0	168.0	0.0333333333333	0.1333333333333	0.0666666666667	215.55913281440735	
9	206.88666105270386	pulse	0	t		0.16666667	0.0666666666667	180.0	168.0	0.0333333333333	0.1333333333333	0.0666666666667	216.3920819759369	
9	208.48673701286316	pulse	0	t		0.16666667	0.0666666666667	180.0	168.0	0.0333333333333	0.1333333333333	0.0666666666667	217.9921579360962	
9	208.8396348953247	response	0	b		0.16666667	0.0666666666667	180.0	168.0	0.0333333333333	0.1333333333333	0.0666666666667	218.34505581855774	
9	210.0867691040039	pulse	0	t		0.16666667	0.0666666666667	180.0	168.0	0.0333333333333	0.1333333333333	0.0666666666667	219.59219002723694	
9	211.0757350921631	response	0	b		0.16666667	0.0666666666667	180.0	168.0	0.0333333333333	0.1333333333333	0.0666666666667	220.58115601539612	
9	211.6867699623108	pulse	0	t		0.16666667	0.0666666666667	180.0	168.0	0.0333333333333	0.1333333333333	0.0666666666667	221.19219088554382	
10	211.7397940158844	stim	0		0	0.16666667	0.0666666666667	90.0	192.0	0.0333333333333	0.1333333333333	0.0666666666667	221.24521493911743	23.987026929855347
10	213.19088506698608	response	0	b		0.16666667	0.0666666666667	90.0	192.0	0.0333333333333	0.1333333333333	0.0666666666667	222.69630599021912	
10	213.2866768836975	pulse	0	t		0.16666667	0.0666666666667	90.0	192.0	0.0333333333333	0.1333333333333	0.0666666666667	222.79209780693054	
10	214.8867781162262	pulse	0	t		0.16666667	0.0666666666667	90.0	192.0	0.0333333333333	0.1333333333333	0.0666666666667	224.39219903945923	
10	215.80979895591736	response	0	b		0.16666667	0.0666666666667	90.0	192.0	0.0333333333333	0.1333333333333	0.0666666666667	225.3152198791504	
10	216.48685002326965	pulse	0	t		0.16666667	0.0666666666667	90.0	192.0	0.0333333333333	0.1333333333333	0.0666666666667	225.99227094650269	
10	218.08681797981262	pulse	0	t		0.16666667	0.0666666666667	90.0	192.0	0.0333333333333	0.1333333333333	0.0666666666667	227.59223890304565	
10	219.68685102462769	pulse	0	t		0.16666667	0.0666666666667	90.0	192.0	0.0333333333333	0.1333333333333	0.0666666666667	229.19227194786072	
10	221.28687810897827	pulse	0	t		0.16666667	0.0666666666667	90.0	192.0	0.0333333333333	0.1333333333333	0.0666666666667	230.7922990322113	
10	222.01680707931519	response	0	b		0.16666667	0.0666666666667	90.0	192.0	0.0333333333333	0.1333333333333	0.0666666666667	231.52222800254822	
10	222.88691306114197	pulse	0	t		0.16666667	0.0666666666667	90.0	192.0	0.0333333333333	0.1333333333333	0.0666666666667	232.392333984375	
10	224.48689103126526	pulse	0	t		0.16666667	0.0666666666667	90.0	192.0	0.0333333333333	0.1333333333333	0.0666666666667	233.9923119544983	
10	226.0869369506836	pulse	0	t		0.16666667	0.0666666666667	90.0	192.0	0.0333333333333	0.1333333333333	0.0666666666667	235.59235787391663	
10	227.68695092201233	pulse	0	t		0.16666667	0.0666666666667	90.0	192.0	0.0333333333333	0.1333333333333	0.0666666666667	237.19237184524536	
10	227.68976998329163	response	0	b		0.16666667	0.0666666666667	90.0	192.0	0.0333333333333	0.1333333333333	0.0666666666667	237.19519090652466	
10	229.28698205947876	pulse	0	t		0.16666667	0.0666666666667	90.0	192.0	0.0333333333333	0.1333333333333	0.0666666666667	238.7924029827118	
10	230.8870050907135	pulse	0	t		0.16666667	0.0666666666667	90.0	192.0	0.0333333333333	0.1333333333333	0.0666666666667	240.39242601394653	
10	231.89198398590088	response	0	b		0.16666667	0.0666666666667	90.0	192.0	0.0333333333333	0.1333333333333	0.0666666666667	241.3974049091339	
10	232.48699688911438	pulse	0	t		0.16666667	0.0666666666667	90.0	192.0	0.0333333333333	0.1333333333333	0.0666666666667	241.9924178123474	
10	234.0869870185852	pulse	0	t		0.16666667	0.0666666666667	90.0	192.0	0.0333333333333	0.1333333333333	0.0666666666667	243.59240794181824	
10	235.68702507019043	pulse	0	t		0.16666667	0.0666666666667	90.0	192.0	0.0333333333333	0.1333333333333	0.0666666666667	245.19244599342346	
11	235.72682094573975	stim	0		0	-1.0	1.0	-1.0	216.0	0.0333333333333	0.1333333333333	0.0666666666667	245.23224186897278	16.010671138763428
11	237.2872679233551	pulse	0	t		-1.0	1.0	-1.0	216.0	0.0333333333333	0.1333333333333	0.0666666666667	246.79268884658813	
11	238.0689549446106	response	0	b		-1.0	1.0	-1.0	216.0	0.0333333333333	0.1333333333333	0.0666666666667	247.57437586784363	
11	238.88751006126404	pulse	0	t		-1.0	1.0	-1.0	216.0	0.0333333333333	0.1333333333333	0.0666666666667	248.39293098449707	
11	240.48762607574463	pulse	0	t		-1.0	1.0	-1.0	216.0	0.0333333333333	0.1333333333333	0.0666666666667	249.99304699897766	
11	240.70437788963318	response	0	b		-1.0	1.0	-1.0	216.0	0.0333333333333	0.1333333333333	0.0666666666667	250.2097988128662	
11	242.08622407913208	pulse	0	t		-1.0	1.0	-1.0	216.0	0.0333333333333	0.1333333333333	0.0666666666667	251.5916450023651	
11	243.68635511398315	pulse	0	t		-1.0	1.0	-1.0	216.0	0.0333333333333	0.1333333333333	0.0666666666667	253.1917760372162	
11	245.28666996955872	pulse	0	t		-1.0	1.0	-1.0	216.0	0.0333333333333	0.1333333333333	0.0666666666667	254.79209089279175	
11	245.5116970539093	response	0	b		-1.0	1.0	-1.0	216.0	0.0333333333333	0.1333333333333	0.0666666666667	255.01711797714233	
11	246.88685297966003	pulse	0	t		-1.0	1.0	-1.0	216.0	0.0333333333333	0.1333333333333	0.0666666666667	256.39227390289307	
11	248.40550589561462	response	0	b		-1.0	1.0	-1.0	216.0	0.0333333333333	0.1333333333333	0.0666666666667	257.91092681884766	
11	248.48714995384216	pulse	0	t		-1.0	1.0	-1.0	216.0	0.0333333333333	0.1333333333333	0.0666666666667	257.9925708770752	
11	250.08735394477844	pulse	0	t		-1.0	1.0	-1.0	216.0	0.0333333333333	0.1333333333333	0.0666666666667	259.5927748680115	
11	251.6875410079956	pulse	0	t		-1.0	1.0	-1.0	216.0	0.0333333333333	0.1333333333333	0.0666666666667	261.19296193122864	
12	251.73749208450317	stim	0		0	0.16666667	0.0666666666667	0.0	232.0	0.0333333333333	0.1333333333333	0.0666666666667	261.2429130077362	23.99523401260376
12	253.1062490940094	response	0	b		0.16666667	0.0666666666667	0.0	232.0	0.0333333333333	0.1333333333333	0.0666666666667	262.61167001724243	
12	253.28617000579834	pulse	0	t		0.16666667	0.0666666666667	0.0	232.0	0.0333333333333	0.1333333333333	0.0666666666667	262.7915909290314	
12	254.8863389492035	pulse	0	t		0.16666667	0.0666666666667	0.0	232.0	0.0333333333333	0.1333333333333	0.0666666666667	264.3917598724365	
12	255.16719508171082	response	0	b		0.16666667	0.0666666666667	0.0	232.0	0.0333333333333	0.1333333333333	0.0666666666667	264.67261600494385	
12	256.4863018989563	pulse	0	t		0.16666667	0.0666666666667	0.0	232.0	0.0333333333333	0.1333333333333	0.0666666666667	265.99172282218933	
12	258.0863399505615	pulse	0	t		0.16666667	0.0666666666667	0.0	232.0	0.0333333333333	0.1333333333333	0.0666666666667	267.59176087379456	
12	259.6862950325012	pulse	0	t		0.16666667	0.0666666666667	0.0	232.0	0.0333333333333	0.1333333333333	0.0666666666667	269.19171595573425	
12	261.07735109329224	response	0	b		0.16666667	0.0666666666667	0.0	232.0	0.0333333333333	0.1333333333333	0.0666666666667	270.58277201652527	
12	261.286288022995	pulse	0	t		0.16666667	0.0666666666667	0.0	232.0	0.0333333333333	0.1333333333333	0.0666666666667	270.791708946228	
12	262.8863959312439	pulse	0	t		0.16666667	0.0666666666667	0.0	232.0	0.0333333333333	0.1333333333333	0.0666666666667	272.39181685447693	
12	264.4863920211792	pulse	0	t		0.16666667	0.0666666666667	0.0	232.0	0.0333333333333	0.1333333333333	0.0666666666667	273.99181294441223	
12	265.8444390296936	response	0	b		0.16666667	0.0666666666667	0.0	232.0	0.0333333333333	0.1333333333333	0.0666666666667	275.34985995292664	
12	266.08632707595825	pulse	0	t		0.16666667	0.0666666666667	0.0	232.0	0.0333333333333	0.1333333333333	0.0666666666667	275.5917479991913	
12	267.1133780479431	response	0	b		0.16666667	0.0666666666667	0.0	232.0	0.0333333333333	0.1333333333333	0.0666666666667	276.61879897117615	
12	267.6864449977875	pulse	0	t		0.16666667	0.0666666666667	0.0	232.0	0.0333333333333	0.1333333333333	0.0666666666667	277.1918659210205	
12	268.7553770542145	response	0	b		0.16666667	0.0666666666667	0.0	232.0	0.0333333333333	0.1333333333333	0.0666666666667	278.2607979774475	
12	269.28642201423645	pulse	0	t		0.16666667	0.0666666666667	0.0	232.0	0.0333333333333	0.1333333333333	0.0666666666667	278.7918429374695	
12	270.88648200035095	pulse	0	t		0.16666667	0.0666666666667	0.0	232.0	0.0333333333333	0.1333333333333	0.0666666666667	280.391902923584	
12	270.93731594085693	response	0	b		0.16666667	0.0666666666667	0.0	232.0	0.0333333333333	0.1333333333333	0.0666666666667	280.44273686408997	
12	272.48649311065674	pulse	0	t		0.16666667	0.0666666666667	0.0	232.0	0.0333333333333	0.1333333333333	0.0666666666667	281.99191403388977	
12	274.0866620540619	pulse	0	t		0.16666667	0.0666666666667	0.0	232.0	0.0333333333333	0.1333333333333	0.0666666666667	283.5920829772949	
12	275.3525309562683	response	0	b		0.16666667	0.0666666666667	0.0	232.0	0.0333333333333	0.1333333333333	0.0666666666667	284.85795187950134	
12	275.68646907806396	pulse	0	t		0.16666667	0.0666666666667	0.0	232.0	0.0333333333333	0.1333333333333	0.0666666666667	285.191890001297	
13	275.73272609710693	stim	0		0	0.16666667	0.0666666666667	270.0	256.0	0.0333333333333	0.1333333333333	0.0666666666667	285.23814702033997	23.995221853256226
13	277.2865529060364	pulse	0	t		0.16666667	0.0666666666667	270.0	256.0	0.0333333333333	0.1333333333333	0.0666666666667	286.7919738292694	
13	278.7257170677185	response	0	b		0.16666667	0.0666666666667	270.0	256.0	0.0333333333333	0.1333333333333	0.0666666666667	288.23113799095154	
13	278.88647294044495	pulse	0	t		0.16666667	0.0666666666667	270.0	256.0	0.0333333333333	0.1333333333333	0.0666666666667	288.391893863678	
13	280.48658204078674	pulse	0	t		0.16666667	0.0666666666667	270.0	256.0	0.0333333333333	0.1333333333333	0.0666666666667	289.9920029640198	
13	282.0866320133209	pulse	0	t		0.16666667	0.0666666666667	270.0	256.0	0.0333333333333	0.1333333333333	0.0666666666667	291.59205293655396	
13	283.68666100502014	pulse	0	t		0.16666667	0.0666666666667	270.0	256.0	0.0333333333333	0.1333333333333	0.0666666666667	293.1920819282532	
13	284.3806080818176	response	0	b		0.16666667	0.0666666666667	270.0	256.0	0.0333333333333	0.1333333333333	0.0666666666667	293.88602900505066	
13	285.28667306900024	pulse	0	t		0.16666667	0.0666666666667	270.0	256.0	0.0333333333333	0.1333333333333	0.0666666666667	294.7920939922333	
13	286.88667392730713	pulse	0	t		0.16666667	0.0666666666667	270.0	256.0	0.0333333333333	0.1333333333333	0.0666666666667	296.39209485054016	
13	287.45361590385437	response	0	b		0.16666667	0.0666666666667	270.0	256.0	0.0333333333333	0.1333333333333	0.0666666666667	296.9590368270874	
13	288.48669695854187	pulse	0	t		0.16666667	0.0666666666667	270.0	256.0	0.0333333333333	0.1333333333333	0.0666666666667	297.9921178817749	
13	290.0867049694061	pulse	0	t		0.16666667	0.0666666666667	270.0	256.0	0.0333333333333	0.1333333333333	0.0666666666667	299.59212589263916	
13	290.70272302627563	response	0	b		0.16666667	0.0666666666667	270.0	256.0	0.0333333333333	0.1333333333333	0.0666666666667	300.20814394950867	
13	291.68667697906494	pulse	0	t		0.16666667	0.0666666666667	270.0	256.0	0.0333333333333	0.1333333333333	0.0666666666667	301.192097902298	
13	293.28673791885376	pulse	0	t		0.16666667	0.0666666666667	270.0	256.0	0.0333333333333	0.1333333333333	0.0666666666667	302.7921588420868	
13	294.8327729701996	response	0	b		0.16666667	0.0666666666667	270.0	256.0	0.0333333333333	0.1333333333333	0.0666666666667	304.3381938934326	
13	294.8866410255432	pulse	0	t		0.16666667	0.0666666666667	270.0	256.0	0.0333333333333	0.1333333333333	0.0666666666667	304.39206194877625	
13	296.48678708076477	pulse	0	t		0.16666667	0.0666666666667	270.0	256.0	0.0333333333333	0.1333333333333	0.0666666666667	305.9922080039978	
13	298.0867691040039	pulse	0	t		0.16666667	0.0666666666667	270.0	256.0	0.0333333333333	0.1333333333333	0.0666666666667	307.59219002723694	
13	299.68677401542664	pulse	0	t		0.16666667	0.0666666666667	270.0	256.0	0.0333333333333	0.1333333333333	0.0666666666667	309.19219493865967	
14	299.72794795036316	stim	0		0								309.2333688735962	24.803845167160034
14	301.28855991363525	pulse	0	t									310.7939808368683	
14	302.88863611221313	pulse	0	t									312.39405703544617	
14	303.74547696113586	response	0	b									313.2508978843689	
14	304.487065076828	pulse	0	t									313.99248600006104	
14	306.087366104126	pulse	0	t									315.592787027359	
14	307.68773198127747	pulse	0	t									317.1931529045105	
14	308.30447006225586	response	0	b									317.8098909854889	
14	309.287878036499	pulse	0	t									318.79329895973206	
14	310.3713290691376	response	0	b									319.8767499923706	
14	310.8880310058594	pulse	0	t									320.3934519290924	
14	312.48837304115295	pulse	0	t									321.993793964386	
14	314.0886559486389	pulse	0	t									323.59407687187195	
14	314.3052821159363	response	0	b									323.8107030391693	
14	315.6888949871063	pulse	0	t									325.19431591033936	
14	317.2890269756317	pulse	0	t									326.79444789886475	
14	318.50588393211365	response	0	b									328.0113048553467	
14	318.8892979621887	pulse	0	t									328.39471888542175	
14	320.48956298828125	pulse	0	t									329.9949839115143	
14	321.43973898887634	response	0	b									330.9451599121094	
14	322.08981108665466	pulse	0	t									331.5952320098877	
14	323.5567009449005	response	0	b									333.06212186813354	
14	323.6900579929352	pulse	0	t									333.1954789161682	
