trial_nr	onset	event_type	phase	response	nr_frames	bar_width	bar_refresh_time	bar_direction	start_time	bar_blank_duration	bar_blank_interval	bg_stim_refresh_time	onset_abs	duration
0	0.15847301483154297	stim	0		0								32.420804023742676	1.9833950996398926
0	2.1339120864868164	response	0	space									34.39624309539795	
1	2.1418681144714355	stim	0		0								34.40419912338257	36.36544489860535
1	38.48752212524414	pulse	0	t									70.74985313415527	
1	38.50731301307678	stim	1		0								70.76964402198792	0.0007481575012207031
1	38.508061170578	stim	0		0								70.77039217948914	24.001182794570923
1	40.081024169921875	pulse	0	t									72.34335517883301	
1	41.68124508857727	pulse	0	t									73.9435760974884	
1	43.28167915344238	pulse	0	t									75.54401016235352	
1	44.88188409805298	pulse	0	t									77.14421510696411	
1	46.48198413848877	pulse	0	t									78.7443151473999	
1	48.08222317695618	pulse	0	t									80.34455418586731	
1	49.68244695663452	pulse	0	t									81.94477796554565	
1	51.282737016677856	pulse	0	t									83.54506802558899	
1	52.88288712501526	pulse	0	t									85.14521813392639	
1	54.48320198059082	pulse	0	t									86.74553298950195	
1	56.08338499069214	pulse	0	t									88.34571599960327	
1	57.67718005180359	pulse	0	t									89.93951106071472	
1	59.2773060798645	pulse	0	t									91.53963708877563	
1	59.517346143722534	response	0	y									91.77967715263367	
1	60.87761902809143	pulse	0	t									93.13995003700256	
1	62.47774600982666	pulse	0	t									94.7400770187378	
2	62.509243965148926	stim	0		0	0.16666667	0.0666666666667	270.0	24.0	0.0333333333333	0.1333333333333	0.0666666666667	94.77157497406006	23.995304107666016
2	62.542251110076904	response	0	y		0.16666667	0.0666666666667	270.0	24.0	0.0333333333333	0.1333333333333	0.0666666666667	94.80458211898804	
2	64.07739210128784	pulse	0	t		0.16666667	0.0666666666667	270.0	24.0	0.0333333333333	0.1333333333333	0.0666666666667	96.33972311019897	
2	65.67739009857178	pulse	0	t		0.16666667	0.0666666666667	270.0	24.0	0.0333333333333	0.1333333333333	0.0666666666667	97.93972110748291	
2	67.27736711502075	pulse	0	t		0.16666667	0.0666666666667	270.0	24.0	0.0333333333333	0.1333333333333	0.0666666666667	99.53969812393188	
2	67.28113794326782	response	0	y		0.16666667	0.0666666666667	270.0	24.0	0.0333333333333	0.1333333333333	0.0666666666667	99.54346895217896	
2	68.87730407714844	pulse	0	t		0.16666667	0.0666666666667	270.0	24.0	0.0333333333333	0.1333333333333	0.0666666666667	101.13963508605957	
2	69.91235303878784	response	0	y		0.16666667	0.0666666666667	270.0	24.0	0.0333333333333	0.1333333333333	0.0666666666667	102.17468404769897	
2	70.47735500335693	pulse	0	t		0.16666667	0.0666666666667	270.0	24.0	0.0333333333333	0.1333333333333	0.0666666666667	102.73968601226807	
2	72.0774130821228	pulse	0	t		0.16666667	0.0666666666667	270.0	24.0	0.0333333333333	0.1333333333333	0.0666666666667	104.33974409103394	
2	73.67742705345154	pulse	0	t		0.16666667	0.0666666666667	270.0	24.0	0.0333333333333	0.1333333333333	0.0666666666667	105.93975806236267	
2	73.82028198242188	response	0	y		0.16666667	0.0666666666667	270.0	24.0	0.0333333333333	0.1333333333333	0.0666666666667	106.08261299133301	
2	75.27744603157043	pulse	0	t		0.16666667	0.0666666666667	270.0	24.0	0.0333333333333	0.1333333333333	0.0666666666667	107.53977704048157	
2	76.3697121143341	response	0	y		0.16666667	0.0666666666667	270.0	24.0	0.0333333333333	0.1333333333333	0.0666666666667	108.63204312324524	
2	76.8774299621582	pulse	0	t		0.16666667	0.0666666666667	270.0	24.0	0.0333333333333	0.1333333333333	0.0666666666667	109.13976097106934	
2	78.4774911403656	pulse	0	t		0.16666667	0.0666666666667	270.0	24.0	0.0333333333333	0.1333333333333	0.0666666666667	110.73982214927673	
2	79.79348802566528	response	0	y		0.16666667	0.0666666666667	270.0	24.0	0.0333333333333	0.1333333333333	0.0666666666667	112.05581903457642	
2	80.07737612724304	pulse	0	t		0.16666667	0.0666666666667	270.0	24.0	0.0333333333333	0.1333333333333	0.0666666666667	112.33970713615417	
2	81.67747902870178	pulse	0	t		0.16666667	0.0666666666667	270.0	24.0	0.0333333333333	0.1333333333333	0.0666666666667	113.93981003761292	
2	82.39445209503174	response	0	y		0.16666667	0.0666666666667	270.0	24.0	0.0333333333333	0.1333333333333	0.0666666666667	114.65678310394287	
2	83.27751898765564	pulse	0	t		0.16666667	0.0666666666667	270.0	24.0	0.0333333333333	0.1333333333333	0.0666666666667	115.53984999656677	
2	84.8775200843811	pulse	0	t		0.16666667	0.0666666666667	270.0	24.0	0.0333333333333	0.1333333333333	0.0666666666667	117.13985109329224	
2	86.47752404212952	pulse	0	t		0.16666667	0.0666666666667	270.0	24.0	0.0333333333333	0.1333333333333	0.0666666666667	118.73985505104065	
3	86.50454807281494	stim	0		0	0.16666667	0.0666666666667	0.0	48.0	0.0333333333333	0.1333333333333	0.0666666666667	118.76687908172607	24.011836051940918
3	88.07758212089539	pulse	0	t		0.16666667	0.0666666666667	0.0	48.0	0.0333333333333	0.1333333333333	0.0666666666667	120.33991312980652	
3	88.1764121055603	response	0	y		0.16666667	0.0666666666667	0.0	48.0	0.0333333333333	0.1333333333333	0.0666666666667	120.43874311447144	
3	89.6775770187378	pulse	0	t		0.16666667	0.0666666666667	0.0	48.0	0.0333333333333	0.1333333333333	0.0666666666667	121.93990802764893	
3	91.27763414382935	pulse	0	t		0.16666667	0.0666666666667	0.0	48.0	0.0333333333333	0.1333333333333	0.0666666666667	123.53996515274048	
3	92.87764000892639	pulse	0	t		0.16666667	0.0666666666667	0.0	48.0	0.0333333333333	0.1333333333333	0.0666666666667	125.13997101783752	
3	94.47766494750977	pulse	0	t		0.16666667	0.0666666666667	0.0	48.0	0.0333333333333	0.1333333333333	0.0666666666667	126.7399959564209	
3	95.28862309455872	response	0	y		0.16666667	0.0666666666667	0.0	48.0	0.0333333333333	0.1333333333333	0.0666666666667	127.55095410346985	
3	96.07763195037842	pulse	0	t		0.16666667	0.0666666666667	0.0	48.0	0.0333333333333	0.1333333333333	0.0666666666667	128.33996295928955	
3	97.67767596244812	pulse	0	t		0.16666667	0.0666666666667	0.0	48.0	0.0333333333333	0.1333333333333	0.0666666666667	129.94000697135925	
3	98.60171008110046	response	0	y		0.16666667	0.0666666666667	0.0	48.0	0.0333333333333	0.1333333333333	0.0666666666667	130.8640410900116	
3	99.27768611907959	pulse	0	t		0.16666667	0.0666666666667	0.0	48.0	0.0333333333333	0.1333333333333	0.0666666666667	131.54001712799072	
3	100.87774705886841	pulse	0	t		0.16666667	0.0666666666667	0.0	48.0	0.0333333333333	0.1333333333333	0.0666666666667	133.14007806777954	
3	101.11065101623535	response	0	y		0.16666667	0.0666666666667	0.0	48.0	0.0333333333333	0.1333333333333	0.0666666666667	133.37298202514648	
3	102.47775602340698	pulse	0	t		0.16666667	0.0666666666667	0.0	48.0	0.0333333333333	0.1333333333333	0.0666666666667	134.74008703231812	
3	104.0777599811554	pulse	0	t		0.16666667	0.0666666666667	0.0	48.0	0.0333333333333	0.1333333333333	0.0666666666667	136.34009099006653	
3	104.25863695144653	response	0	y		0.16666667	0.0666666666667	0.0	48.0	0.0333333333333	0.1333333333333	0.0666666666667	136.52096796035767	
3	105.67773604393005	pulse	0	t		0.16666667	0.0666666666667	0.0	48.0	0.0333333333333	0.1333333333333	0.0666666666667	137.9400670528412	
3	107.27678203582764	pulse	0	t		0.16666667	0.0666666666667	0.0	48.0	0.0333333333333	0.1333333333333	0.0666666666667	139.53911304473877	
3	108.87685012817383	pulse	0	t		0.16666667	0.0666666666667	0.0	48.0	0.0333333333333	0.1333333333333	0.0666666666667	141.13918113708496	
3	110.47690200805664	pulse	0	t		0.16666667	0.0666666666667	0.0	48.0	0.0333333333333	0.1333333333333	0.0666666666667	142.73923301696777	
4	110.51638412475586	stim	0		0	-1.0	1.0	-1.0	72.0	0.0333333333333	0.1333333333333	0.0666666666667	142.778715133667	15.994109869003296
4	112.08358216285706	pulse	0	t		-1.0	1.0	-1.0	72.0	0.0333333333333	0.1333333333333	0.0666666666667	144.3459131717682	
4	113.67719912528992	pulse	0	t		-1.0	1.0	-1.0	72.0	0.0333333333333	0.1333333333333	0.0666666666667	145.93953013420105	
4	114.91714811325073	response	0	y		-1.0	1.0	-1.0	72.0	0.0333333333333	0.1333333333333	0.0666666666667	147.17947912216187	
4	115.27738404273987	pulse	0	t		-1.0	1.0	-1.0	72.0	0.0333333333333	0.1333333333333	0.0666666666667	147.539715051651	
4	116.87756705284119	pulse	0	t		-1.0	1.0	-1.0	72.0	0.0333333333333	0.1333333333333	0.0666666666667	149.13989806175232	
4	118.47771215438843	pulse	0	t		-1.0	1.0	-1.0	72.0	0.0333333333333	0.1333333333333	0.0666666666667	150.74004316329956	
4	120.07812809944153	pulse	0	t		-1.0	1.0	-1.0	72.0	0.0333333333333	0.1333333333333	0.0666666666667	152.34045910835266	
4	121.10147213935852	response	0	y		-1.0	1.0	-1.0	72.0	0.0333333333333	0.1333333333333	0.0666666666667	153.36380314826965	
4	121.67832398414612	pulse	0	t		-1.0	1.0	-1.0	72.0	0.0333333333333	0.1333333333333	0.0666666666667	153.94065499305725	
4	123.27857208251953	pulse	0	t		-1.0	1.0	-1.0	72.0	0.0333333333333	0.1333333333333	0.0666666666667	155.54090309143066	
4	124.14365601539612	response	0	y		-1.0	1.0	-1.0	72.0	0.0333333333333	0.1333333333333	0.0666666666667	156.40598702430725	
4	124.87698817253113	pulse	0	t		-1.0	1.0	-1.0	72.0	0.0333333333333	0.1333333333333	0.0666666666667	157.13931918144226	
4	126.47719311714172	pulse	0	t		-1.0	1.0	-1.0	72.0	0.0333333333333	0.1333333333333	0.0666666666667	158.73952412605286	
5	126.51049399375916	stim	0		0	0.16666667	0.0666666666667	90.0	88.0	0.0333333333333	0.1333333333333	0.0666666666667	158.7728250026703	23.995208978652954
5	126.80501413345337	response	0	y		0.16666667	0.0666666666667	90.0	88.0	0.0333333333333	0.1333333333333	0.0666666666667	159.0673451423645	
5	128.07704210281372	pulse	0	t		0.16666667	0.0666666666667	90.0	88.0	0.0333333333333	0.1333333333333	0.0666666666667	160.33937311172485	
5	129.42803502082825	response	0	y		0.16666667	0.0666666666667	90.0	88.0	0.0333333333333	0.1333333333333	0.0666666666667	161.69036602973938	
5	129.67699599266052	pulse	0	t		0.16666667	0.0666666666667	90.0	88.0	0.0333333333333	0.1333333333333	0.0666666666667	161.93932700157166	
5	131.27704501152039	pulse	0	t		0.16666667	0.0666666666667	90.0	88.0	0.0333333333333	0.1333333333333	0.0666666666667	163.53937602043152	
5	132.87712407112122	pulse	0	t		0.16666667	0.0666666666667	90.0	88.0	0.0333333333333	0.1333333333333	0.0666666666667	165.13945508003235	
5	134.47712302207947	pulse	0	t		0.16666667	0.0666666666667	90.0	88.0	0.0333333333333	0.1333333333333	0.0666666666667	166.7394540309906	
5	134.84402298927307	response	0	y		0.16666667	0.0666666666667	90.0	88.0	0.0333333333333	0.1333333333333	0.0666666666667	167.1063539981842	
5	136.0771839618683	pulse	0	t		0.16666667	0.0666666666667	90.0	88.0	0.0333333333333	0.1333333333333	0.0666666666667	168.33951497077942	
5	137.67715311050415	pulse	0	t		0.16666667	0.0666666666667	90.0	88.0	0.0333333333333	0.1333333333333	0.0666666666667	169.93948411941528	
5	138.47918510437012	response	0	y		0.16666667	0.0666666666667	90.0	88.0	0.0333333333333	0.1333333333333	0.0666666666667	170.74151611328125	
5	139.2772011756897	pulse	0	t		0.16666667	0.0666666666667	90.0	88.0	0.0333333333333	0.1333333333333	0.0666666666667	171.53953218460083	
5	140.877179145813	pulse	0	t		0.16666667	0.0666666666667	90.0	88.0	0.0333333333333	0.1333333333333	0.0666666666667	173.13951015472412	
5	142.47721314430237	pulse	0	t		0.16666667	0.0666666666667	90.0	88.0	0.0333333333333	0.1333333333333	0.0666666666667	174.7395441532135	
5	143.238126039505	response	0	y		0.16666667	0.0666666666667	90.0	88.0	0.0333333333333	0.1333333333333	0.0666666666667	175.50045704841614	
5	144.07719612121582	pulse	0	t		0.16666667	0.0666666666667	90.0	88.0	0.0333333333333	0.1333333333333	0.0666666666667	176.33952713012695	
5	145.61525201797485	response	0	y		0.16666667	0.0666666666667	90.0	88.0	0.0333333333333	0.1333333333333	0.0666666666667	177.877583026886	
5	145.67711305618286	pulse	0	t		0.16666667	0.0666666666667	90.0	88.0	0.0333333333333	0.1333333333333	0.0666666666667	177.939444065094	
5	147.27727699279785	pulse	0	t		0.16666667	0.0666666666667	90.0	88.0	0.0333333333333	0.1333333333333	0.0666666666667	179.53960800170898	
5	148.8772850036621	pulse	0	t		0.16666667	0.0666666666667	90.0	88.0	0.0333333333333	0.1333333333333	0.0666666666667	181.13961601257324	
5	150.47726798057556	pulse	0	t		0.16666667	0.0666666666667	90.0	88.0	0.0333333333333	0.1333333333333	0.0666666666667	182.7395989894867	
6	150.5057029724121	stim	0		0	0.16666667	0.0666666666667	180.0	112.0	0.0333333333333	0.1333333333333	0.0666666666667	182.76803398132324	23.995155096054077
6	152.07732796669006	pulse	0	t		0.16666667	0.0666666666667	180.0	112.0	0.0333333333333	0.1333333333333	0.0666666666667	184.3396589756012	
6	152.62136912345886	response	0	y		0.16666667	0.0666666666667	180.0	112.0	0.0333333333333	0.1333333333333	0.0666666666667	184.88370013237	
6	153.67732214927673	pulse	0	t		0.16666667	0.0666666666667	180.0	112.0	0.0333333333333	0.1333333333333	0.0666666666667	185.93965315818787	
6	155.27734398841858	pulse	0	t		0.16666667	0.0666666666667	180.0	112.0	0.0333333333333	0.1333333333333	0.0666666666667	187.5396749973297	
6	156.34235906600952	response	0	y		0.16666667	0.0666666666667	180.0	112.0	0.0333333333333	0.1333333333333	0.0666666666667	188.60469007492065	
6	156.8773729801178	pulse	0	t		0.16666667	0.0666666666667	180.0	112.0	0.0333333333333	0.1333333333333	0.0666666666667	189.13970398902893	
6	158.47745394706726	pulse	0	t		0.16666667	0.0666666666667	180.0	112.0	0.0333333333333	0.1333333333333	0.0666666666667	190.7397849559784	
6	160.0774199962616	pulse	0	t		0.16666667	0.0666666666667	180.0	112.0	0.0333333333333	0.1333333333333	0.0666666666667	192.33975100517273	
6	161.66339898109436	response	0	y		0.16666667	0.0666666666667	180.0	112.0	0.0333333333333	0.1333333333333	0.0666666666667	193.9257299900055	
6	161.67729902267456	pulse	0	t		0.16666667	0.0666666666667	180.0	112.0	0.0333333333333	0.1333333333333	0.0666666666667	193.9396300315857	
6	163.27747797966003	pulse	0	t		0.16666667	0.0666666666667	180.0	112.0	0.0333333333333	0.1333333333333	0.0666666666667	195.53980898857117	
6	164.87750601768494	pulse	0	t		0.16666667	0.0666666666667	180.0	112.0	0.0333333333333	0.1333333333333	0.0666666666667	197.13983702659607	
6	166.3965060710907	response	0	y		0.16666667	0.0666666666667	180.0	112.0	0.0333333333333	0.1333333333333	0.0666666666667	198.65883708000183	
6	166.47735714912415	pulse	0	t		0.16666667	0.0666666666667	180.0	112.0	0.0333333333333	0.1333333333333	0.0666666666667	198.73968815803528	
6	168.0775649547577	pulse	0	t		0.16666667	0.0666666666667	180.0	112.0	0.0333333333333	0.1333333333333	0.0666666666667	200.33989596366882	
6	169.0945279598236	response	0	y		0.16666667	0.0666666666667	180.0	112.0	0.0333333333333	0.1333333333333	0.0666666666667	201.35685896873474	
6	169.67754817008972	pulse	0	t		0.16666667	0.0666666666667	180.0	112.0	0.0333333333333	0.1333333333333	0.0666666666667	201.93987917900085	
6	171.27759099006653	pulse	0	t		0.16666667	0.0666666666667	180.0	112.0	0.0333333333333	0.1333333333333	0.0666666666667	203.53992199897766	
6	171.57554507255554	response	0	y		0.16666667	0.0666666666667	180.0	112.0	0.0333333333333	0.1333333333333	0.0666666666667	203.83787608146667	
6	172.87760496139526	pulse	0	t		0.16666667	0.0666666666667	180.0	112.0	0.0333333333333	0.1333333333333	0.0666666666667	205.1399359703064	
6	174.47767806053162	pulse	0	t		0.16666667	0.0666666666667	180.0	112.0	0.0333333333333	0.1333333333333	0.0666666666667	206.74000906944275	
7	174.5008580684662	stim	0		0	-1.0	1.0	-1.0	136.0	0.0333333333333	0.1333333333333	0.0666666666667	206.76318907737732	16.010780096054077
7	176.07809209823608	pulse	0	t		-1.0	1.0	-1.0	136.0	0.0333333333333	0.1333333333333	0.0666666666667	208.34042310714722	
7	177.6783971786499	pulse	0	t		-1.0	1.0	-1.0	136.0	0.0333333333333	0.1333333333333	0.0666666666667	209.94072818756104	
7	179.2785940170288	pulse	0	t		-1.0	1.0	-1.0	136.0	0.0333333333333	0.1333333333333	0.0666666666667	211.54092502593994	
7	179.6685609817505	response	0	y		-1.0	1.0	-1.0	136.0	0.0333333333333	0.1333333333333	0.0666666666667	211.93089199066162	
7	180.8789780139923	pulse	0	t		-1.0	1.0	-1.0	136.0	0.0333333333333	0.1333333333333	0.0666666666667	213.14130902290344	
7	182.4106559753418	response	0	y		-1.0	1.0	-1.0	136.0	0.0333333333333	0.1333333333333	0.0666666666667	214.67298698425293	
7	182.47912096977234	pulse	0	t		-1.0	1.0	-1.0	136.0	0.0333333333333	0.1333333333333	0.0666666666667	214.74145197868347	
7	184.07923698425293	pulse	0	t		-1.0	1.0	-1.0	136.0	0.0333333333333	0.1333333333333	0.0666666666667	216.34156799316406	
7	185.67949414253235	pulse	0	t		-1.0	1.0	-1.0	136.0	0.0333333333333	0.1333333333333	0.0666666666667	217.94182515144348	
7	186.8362979888916	response	0	y		-1.0	1.0	-1.0	136.0	0.0333333333333	0.1333333333333	0.0666666666667	219.09862899780273	
7	187.27786707878113	pulse	0	t		-1.0	1.0	-1.0	136.0	0.0333333333333	0.1333333333333	0.0666666666667	219.54019808769226	
7	188.87817001342773	pulse	0	t		-1.0	1.0	-1.0	136.0	0.0333333333333	0.1333333333333	0.0666666666667	221.14050102233887	
7	189.64489912986755	response	0	y		-1.0	1.0	-1.0	136.0	0.0333333333333	0.1333333333333	0.0666666666667	221.9072301387787	
7	190.47845196723938	pulse	0	t		-1.0	1.0	-1.0	136.0	0.0333333333333	0.1333333333333	0.0666666666667	222.7407829761505	
8	190.51163816452026	stim	0		0	-1.0	1.0	-1.0	152.0	0.0333333333333	0.1333333333333	0.0666666666667	222.7739691734314	16.002367973327637
8	191.95381617546082	response	0	y		-1.0	1.0	-1.0	152.0	0.0333333333333	0.1333333333333	0.0666666666667	224.21614718437195	
8	192.07879996299744	pulse	0	t		-1.0	1.0	-1.0	152.0	0.0333333333333	0.1333333333333	0.0666666666667	224.34113097190857	
8	193.67885613441467	pulse	0	t		-1.0	1.0	-1.0	152.0	0.0333333333333	0.1333333333333	0.0666666666667	225.9411871433258	
8	195.27906894683838	pulse	0	t		-1.0	1.0	-1.0	152.0	0.0333333333333	0.1333333333333	0.0666666666667	227.5413999557495	
8	196.8793909549713	pulse	0	t		-1.0	1.0	-1.0	152.0	0.0333333333333	0.1333333333333	0.0666666666667	229.14172196388245	
8	197.88782215118408	response	0	y		-1.0	1.0	-1.0	152.0	0.0333333333333	0.1333333333333	0.0666666666667	230.15015316009521	
8	198.47970008850098	pulse	0	t		-1.0	1.0	-1.0	152.0	0.0333333333333	0.1333333333333	0.0666666666667	230.7420310974121	
8	200.07985711097717	pulse	0	t		-1.0	1.0	-1.0	152.0	0.0333333333333	0.1333333333333	0.0666666666667	232.3421881198883	
8	201.68004703521729	pulse	0	t		-1.0	1.0	-1.0	152.0	0.0333333333333	0.1333333333333	0.0666666666667	233.94237804412842	
8	202.70695614814758	response	0	y		-1.0	1.0	-1.0	152.0	0.0333333333333	0.1333333333333	0.0666666666667	234.96928715705872	
8	203.28037905693054	pulse	0	t		-1.0	1.0	-1.0	152.0	0.0333333333333	0.1333333333333	0.0666666666667	235.54271006584167	
8	204.88065314292908	pulse	0	t		-1.0	1.0	-1.0	152.0	0.0333333333333	0.1333333333333	0.0666666666667	237.1429841518402	
8	206.48084998130798	pulse	0	t		-1.0	1.0	-1.0	152.0	0.0333333333333	0.1333333333333	0.0666666666667	238.74318099021912	
9	206.5140061378479	stim	0		0	0.16666667	0.0666666666667	180.0	168.0	0.0333333333333	0.1333333333333	0.0666666666667	238.77633714675903	23.986836910247803
9	207.30010795593262	response	0	y		0.16666667	0.0666666666667	180.0	168.0	0.0333333333333	0.1333333333333	0.0666666666667	239.56243896484375	
9	208.07695603370667	pulse	0	t		0.16666667	0.0666666666667	180.0	168.0	0.0333333333333	0.1333333333333	0.0666666666667	240.3392870426178	
9	209.6770350933075	pulse	0	t		0.16666667	0.0666666666667	180.0	168.0	0.0333333333333	0.1333333333333	0.0666666666667	241.93936610221863	
9	209.95598316192627	response	0	y		0.16666667	0.0666666666667	180.0	168.0	0.0333333333333	0.1333333333333	0.0666666666667	242.2183141708374	
9	211.27707409858704	pulse	0	t		0.16666667	0.0666666666667	180.0	168.0	0.0333333333333	0.1333333333333	0.0666666666667	243.53940510749817	
9	212.87707614898682	pulse	0	t		0.16666667	0.0666666666667	180.0	168.0	0.0333333333333	0.1333333333333	0.0666666666667	245.13940715789795	
9	214.4770691394806	pulse	0	t		0.16666667	0.0666666666667	180.0	168.0	0.0333333333333	0.1333333333333	0.0666666666667	246.73940014839172	
9	215.6010971069336	response	0	y		0.16666667	0.0666666666667	180.0	168.0	0.0333333333333	0.1333333333333	0.0666666666667	247.86342811584473	
9	216.07704210281372	pulse	0	t		0.16666667	0.0666666666667	180.0	168.0	0.0333333333333	0.1333333333333	0.0666666666667	248.33937311172485	
9	217.6771399974823	pulse	0	t		0.16666667	0.0666666666667	180.0	168.0	0.0333333333333	0.1333333333333	0.0666666666667	249.93947100639343	
9	219.27711296081543	pulse	0	t		0.16666667	0.0666666666667	180.0	168.0	0.0333333333333	0.1333333333333	0.0666666666667	251.53944396972656	
9	220.04904699325562	response	0	y		0.16666667	0.0666666666667	180.0	168.0	0.0333333333333	0.1333333333333	0.0666666666667	252.31137800216675	
9	220.8771231174469	pulse	0	t		0.16666667	0.0666666666667	180.0	168.0	0.0333333333333	0.1333333333333	0.0666666666667	253.13945412635803	
9	222.47714495658875	pulse	0	t		0.16666667	0.0666666666667	180.0	168.0	0.0333333333333	0.1333333333333	0.0666666666667	254.73947596549988	
9	223.1551170349121	response	0	y		0.16666667	0.0666666666667	180.0	168.0	0.0333333333333	0.1333333333333	0.0666666666667	255.41744804382324	
9	224.07711100578308	pulse	0	t		0.16666667	0.0666666666667	180.0	168.0	0.0333333333333	0.1333333333333	0.0666666666667	256.3394420146942	
9	225.67720699310303	pulse	0	t		0.16666667	0.0666666666667	180.0	168.0	0.0333333333333	0.1333333333333	0.0666666666667	257.93953800201416	
9	225.83500814437866	response	0	y		0.16666667	0.0666666666667	180.0	168.0	0.0333333333333	0.1333333333333	0.0666666666667	258.0973391532898	
9	227.27720308303833	pulse	0	t		0.16666667	0.0666666666667	180.0	168.0	0.0333333333333	0.1333333333333	0.0666666666667	259.53953409194946	
9	228.87721800804138	pulse	0	t		0.16666667	0.0666666666667	180.0	168.0	0.0333333333333	0.1333333333333	0.0666666666667	261.1395490169525	
9	230.4772491455078	pulse	0	t		0.16666667	0.0666666666667	180.0	168.0	0.0333333333333	0.1333333333333	0.0666666666667	262.73958015441895	
10	230.5008430480957	stim	0		0	0.16666667	0.0666666666667	90.0	192.0	0.0333333333333	0.1333333333333	0.0666666666667	262.76317405700684	24.01199698448181
10	232.07733607292175	pulse	0	t		0.16666667	0.0666666666667	90.0	192.0	0.0333333333333	0.1333333333333	0.0666666666667	264.3396670818329	
10	232.13413310050964	response	0	y		0.16666667	0.0666666666667	90.0	192.0	0.0333333333333	0.1333333333333	0.0666666666667	264.3964641094208	
10	233.67727994918823	pulse	0	t		0.16666667	0.0666666666667	90.0	192.0	0.0333333333333	0.1333333333333	0.0666666666667	265.93961095809937	
10	235.2772810459137	pulse	0	t		0.16666667	0.0666666666667	90.0	192.0	0.0333333333333	0.1333333333333	0.0666666666667	267.53961205482483	
10	236.85531306266785	response	0	y		0.16666667	0.0666666666667	90.0	192.0	0.0333333333333	0.1333333333333	0.0666666666667	269.117644071579	
10	236.8771209716797	pulse	0	t		0.16666667	0.0666666666667	90.0	192.0	0.0333333333333	0.1333333333333	0.0666666666667	269.1394519805908	
10	238.47739005088806	pulse	0	t		0.16666667	0.0666666666667	90.0	192.0	0.0333333333333	0.1333333333333	0.0666666666667	270.7397210597992	
10	239.86840295791626	response	0	y		0.16666667	0.0666666666667	90.0	192.0	0.0333333333333	0.1333333333333	0.0666666666667	272.1307339668274	
10	240.07726907730103	pulse	0	t		0.16666667	0.0666666666667	90.0	192.0	0.0333333333333	0.1333333333333	0.0666666666667	272.33960008621216	
10	241.67738914489746	pulse	0	t		0.16666667	0.0666666666667	90.0	192.0	0.0333333333333	0.1333333333333	0.0666666666667	273.9397201538086	
10	243.2774109840393	pulse	0	t		0.16666667	0.0666666666667	90.0	192.0	0.0333333333333	0.1333333333333	0.0666666666667	275.53974199295044	
10	244.35541796684265	response	0	y		0.16666667	0.0666666666667	90.0	192.0	0.0333333333333	0.1333333333333	0.0666666666667	276.6177489757538	
10	244.87739515304565	pulse	0	t		0.16666667	0.0666666666667	90.0	192.0	0.0333333333333	0.1333333333333	0.0666666666667	277.1397261619568	
10	246.4774661064148	pulse	0	t		0.16666667	0.0666666666667	90.0	192.0	0.0333333333333	0.1333333333333	0.0666666666667	278.7397971153259	
10	248.07751607894897	pulse	0	t		0.16666667	0.0666666666667	90.0	192.0	0.0333333333333	0.1333333333333	0.0666666666667	280.3398470878601	
10	248.4494321346283	response	0	y		0.16666667	0.0666666666667	90.0	192.0	0.0333333333333	0.1333333333333	0.0666666666667	280.71176314353943	
10	249.67750215530396	pulse	0	t		0.16666667	0.0666666666667	90.0	192.0	0.0333333333333	0.1333333333333	0.0666666666667	281.9398331642151	
10	251.2775321006775	pulse	0	t		0.16666667	0.0666666666667	90.0	192.0	0.0333333333333	0.1333333333333	0.0666666666667	283.5398631095886	
10	252.5775270462036	response	0	y		0.16666667	0.0666666666667	90.0	192.0	0.0333333333333	0.1333333333333	0.0666666666667	284.83985805511475	
10	252.87748003005981	pulse	0	t		0.16666667	0.0666666666667	90.0	192.0	0.0333333333333	0.1333333333333	0.0666666666667	285.13981103897095	
10	254.47752499580383	pulse	0	t		0.16666667	0.0666666666667	90.0	192.0	0.0333333333333	0.1333333333333	0.0666666666667	286.73985600471497	
11	254.51284003257751	stim	0		0	-1.0	1.0	-1.0	216.0	0.0333333333333	0.1333333333333	0.0666666666667	286.77517104148865	15.99403691291809
11	256.07987904548645	pulse	0	t		-1.0	1.0	-1.0	216.0	0.0333333333333	0.1333333333333	0.0666666666667	288.3422100543976	
11	256.26323103904724	response	0	y		-1.0	1.0	-1.0	216.0	0.0333333333333	0.1333333333333	0.0666666666667	288.5255620479584	
11	257.430034160614	response	0	y		-1.0	1.0	-1.0	216.0	0.0333333333333	0.1333333333333	0.0666666666667	289.69236516952515	
11	257.68007802963257	pulse	0	t		-1.0	1.0	-1.0	216.0	0.0333333333333	0.1333333333333	0.0666666666667	289.9424090385437	
11	259.280394077301	pulse	0	t		-1.0	1.0	-1.0	216.0	0.0333333333333	0.1333333333333	0.0666666666667	291.54272508621216	
11	259.3553819656372	response	0	y		-1.0	1.0	-1.0	216.0	0.0333333333333	0.1333333333333	0.0666666666667	291.61771297454834	
11	260.8806109428406	pulse	0	t		-1.0	1.0	-1.0	216.0	0.0333333333333	0.1333333333333	0.0666666666667	293.1429419517517	
11	261.0389370918274	response	0	y		-1.0	1.0	-1.0	216.0	0.0333333333333	0.1333333333333	0.0666666666667	293.3012681007385	
11	262.4807870388031	pulse	0	t		-1.0	1.0	-1.0	216.0	0.0333333333333	0.1333333333333	0.0666666666667	294.74311804771423	
11	264.08109617233276	pulse	0	t		-1.0	1.0	-1.0	216.0	0.0333333333333	0.1333333333333	0.0666666666667	296.3434271812439	
11	265.68135595321655	pulse	0	t		-1.0	1.0	-1.0	216.0	0.0333333333333	0.1333333333333	0.0666666666667	297.9436869621277	
11	267.28158617019653	pulse	0	t		-1.0	1.0	-1.0	216.0	0.0333333333333	0.1333333333333	0.0666666666667	299.54391717910767	
11	268.8817501068115	pulse	0	t		-1.0	1.0	-1.0	216.0	0.0333333333333	0.1333333333333	0.0666666666667	301.14408111572266	
11	269.9818880558014	response	0	y		-1.0	1.0	-1.0	216.0	0.0333333333333	0.1333333333333	0.0666666666667	302.2442190647125	
11	270.4821171760559	pulse	0	t		-1.0	1.0	-1.0	216.0	0.0333333333333	0.1333333333333	0.0666666666667	302.74444818496704	
12	270.5068769454956	stim	0		0	0.16666667	0.0666666666667	0.0	232.0	0.0333333333333	0.1333333333333	0.0666666666667	302.76920795440674	24.003623008728027
12	272.0777590274811	pulse	0	t		0.16666667	0.0666666666667	0.0	232.0	0.0333333333333	0.1333333333333	0.0666666666667	304.3400900363922	
12	273.6777620315552	pulse	0	t		0.16666667	0.0666666666667	0.0	232.0	0.0333333333333	0.1333333333333	0.0666666666667	305.9400930404663	
12	275.2777740955353	pulse	0	t		0.16666667	0.0666666666667	0.0	232.0	0.0333333333333	0.1333333333333	0.0666666666667	307.5401051044464	
12	275.48264813423157	response	0	y		0.16666667	0.0666666666667	0.0	232.0	0.0333333333333	0.1333333333333	0.0666666666667	307.7449791431427	
12	276.87782406806946	pulse	0	t		0.16666667	0.0666666666667	0.0	232.0	0.0333333333333	0.1333333333333	0.0666666666667	309.1401550769806	
12	277.7197871208191	response	0	y		0.16666667	0.0666666666667	0.0	232.0	0.0333333333333	0.1333333333333	0.0666666666667	309.9821181297302	
12	278.4778480529785	pulse	0	t		0.16666667	0.0666666666667	0.0	232.0	0.0333333333333	0.1333333333333	0.0666666666667	310.74017906188965	
12	278.9678599834442	response	0	y		0.16666667	0.0666666666667	0.0	232.0	0.0333333333333	0.1333333333333	0.0666666666667	311.23019099235535	
12	280.0778241157532	pulse	0	t		0.16666667	0.0666666666667	0.0	232.0	0.0333333333333	0.1333333333333	0.0666666666667	312.3401551246643	
12	281.6778950691223	pulse	0	t		0.16666667	0.0666666666667	0.0	232.0	0.0333333333333	0.1333333333333	0.0666666666667	313.94022607803345	
12	283.2779309749603	pulse	0	t		0.16666667	0.0666666666667	0.0	232.0	0.0333333333333	0.1333333333333	0.0666666666667	315.54026198387146	
12	283.56653213500977	response	0	y		0.16666667	0.0666666666667	0.0	232.0	0.0333333333333	0.1333333333333	0.0666666666667	315.8288631439209	
12	284.87788009643555	pulse	0	t		0.16666667	0.0666666666667	0.0	232.0	0.0333333333333	0.1333333333333	0.0666666666667	317.1402111053467	
12	286.47791814804077	pulse	0	t		0.16666667	0.0666666666667	0.0	232.0	0.0333333333333	0.1333333333333	0.0666666666667	318.7402491569519	
12	288.07791113853455	pulse	0	t		0.16666667	0.0666666666667	0.0	232.0	0.0333333333333	0.1333333333333	0.0666666666667	320.3402421474457	
12	289.67796206474304	pulse	0	t		0.16666667	0.0666666666667	0.0	232.0	0.0333333333333	0.1333333333333	0.0666666666667	321.9402930736542	
12	291.2779920101166	pulse	0	t		0.16666667	0.0666666666667	0.0	232.0	0.0333333333333	0.1333333333333	0.0666666666667	323.5403230190277	
12	291.7919590473175	response	0	y		0.16666667	0.0666666666667	0.0	232.0	0.0333333333333	0.1333333333333	0.0666666666667	324.05429005622864	
12	292.87796998023987	pulse	0	t		0.16666667	0.0666666666667	0.0	232.0	0.0333333333333	0.1333333333333	0.0666666666667	325.140300989151	
12	294.47802996635437	pulse	0	t		0.16666667	0.0666666666667	0.0	232.0	0.0333333333333	0.1333333333333	0.0666666666667	326.7403609752655	
13	294.51049995422363	stim	0		0	0.16666667	0.0666666666667	270.0	256.0	0.0333333333333	0.1333333333333	0.0666666666667	326.77283096313477	24.003545999526978
13	296.07701110839844	pulse	0	t		0.16666667	0.0666666666667	270.0	256.0	0.0333333333333	0.1333333333333	0.0666666666667	328.33934211730957	
13	297.1119921207428	response	0	y		0.16666667	0.0666666666667	270.0	256.0	0.0333333333333	0.1333333333333	0.0666666666667	329.37432312965393	
13	297.6770031452179	pulse	0	t		0.16666667	0.0666666666667	270.0	256.0	0.0333333333333	0.1333333333333	0.0666666666667	329.939334154129	
13	299.27709102630615	pulse	0	t		0.16666667	0.0666666666667	270.0	256.0	0.0333333333333	0.1333333333333	0.0666666666667	331.5394220352173	
13	300.8770070075989	pulse	0	t		0.16666667	0.0666666666667	270.0	256.0	0.0333333333333	0.1333333333333	0.0666666666667	333.13933801651	
13	301.16989612579346	response	0	y		0.16666667	0.0666666666667	270.0	256.0	0.0333333333333	0.1333333333333	0.0666666666667	333.4322271347046	
13	302.47701716423035	pulse	0	t		0.16666667	0.0666666666667	270.0	256.0	0.0333333333333	0.1333333333333	0.0666666666667	334.7393481731415	
13	304.077082157135	pulse	0	t		0.16666667	0.0666666666667	270.0	256.0	0.0333333333333	0.1333333333333	0.0666666666667	336.33941316604614	
13	305.6771049499512	pulse	0	t		0.16666667	0.0666666666667	270.0	256.0	0.0333333333333	0.1333333333333	0.0666666666667	337.9394359588623	
13	307.2771451473236	pulse	0	t		0.16666667	0.0666666666667	270.0	256.0	0.0333333333333	0.1333333333333	0.0666666666667	339.53947615623474	
13	308.8771891593933	pulse	0	t		0.16666667	0.0666666666667	270.0	256.0	0.0333333333333	0.1333333333333	0.0666666666667	341.13952016830444	
13	310.47721815109253	pulse	0	t		0.16666667	0.0666666666667	270.0	256.0	0.0333333333333	0.1333333333333	0.0666666666667	342.73954916000366	
13	311.04820013046265	response	0	y		0.16666667	0.0666666666667	270.0	256.0	0.0333333333333	0.1333333333333	0.0666666666667	343.3105311393738	
13	312.0772171020508	pulse	0	t		0.16666667	0.0666666666667	270.0	256.0	0.0333333333333	0.1333333333333	0.0666666666667	344.3395481109619	
13	313.67721915245056	pulse	0	t		0.16666667	0.0666666666667	270.0	256.0	0.0333333333333	0.1333333333333	0.0666666666667	345.9395501613617	
13	314.26323914527893	response	0	y		0.16666667	0.0666666666667	270.0	256.0	0.0333333333333	0.1333333333333	0.0666666666667	346.52557015419006	
13	315.2771849632263	pulse	0	t		0.16666667	0.0666666666667	270.0	256.0	0.0333333333333	0.1333333333333	0.0666666666667	347.53951597213745	
13	316.87723302841187	pulse	0	t		0.16666667	0.0666666666667	270.0	256.0	0.0333333333333	0.1333333333333	0.0666666666667	349.139564037323	
13	318.47728204727173	pulse	0	t		0.16666667	0.0666666666667	270.0	256.0	0.0333333333333	0.1333333333333	0.0666666666667	350.73961305618286	
14	318.5140459537506	stim	0		0								350.77637696266174	25.16222906112671
14	318.56599617004395	response	0	y									350.8283271789551	
14	320.0811469554901	pulse	0	t									352.34347796440125	
14	321.68131399154663	pulse	0	t									353.94364500045776	
14	323.281681060791	pulse	0	t									355.54401206970215	
14	324.8818531036377	pulse	0	t									357.1441841125488	
14	326.4819829463959	pulse	0	t									358.744313955307	
14	327.4322590827942	response	0	y									359.6945900917053	
14	328.08226704597473	pulse	0	t									360.34459805488586	
14	329.68245697021484	pulse	0	t									361.944787979126	
14	330.84095096588135	response	0	y									363.1032819747925	
14	331.2828450202942	pulse	0	t									363.5451760292053	
14	332.8829641342163	pulse	0	t									365.14529514312744	
14	334.4832751750946	pulse	0	t									366.74560618400574	
14	336.0834369659424	pulse	0	t									368.3457679748535	
14	337.68375515937805	pulse	0	t									369.9460861682892	
14	338.9673399925232	response	0	y									371.2296710014343	
14	339.2839241027832	pulse	0	t									371.54625511169434	
14	340.87780594825745	pulse	0	t									373.1401369571686	
14	342.47792410850525	pulse	0	t									374.7402551174164	
