trial_nr	onset	event_type	phase	response	nr_frames	bar_width	bar_refresh_time	bar_direction	start_time	bar_blank_duration	bar_blank_interval	bg_stim_refresh_time	onset_abs	duration
0	0.18321704864501953	stim	0		0								10.866718053817749	1.1167430877685547
0	1.2918641567230225	response	0	space									11.975365161895752	
1	1.2999601364135742	stim	0		0								11.983461141586304	37.42485499382019
1	38.69495701789856	pulse	0	t									49.37845802307129	
1	38.724815130233765	stim	1		0								49.408316135406494	0.0009279251098632812
1	38.72574305534363	stim	0		0								49.40924406051636	24.0001060962677
1	40.289268016815186	pulse	0	t									50.972769021987915	
1	41.28947401046753	response	0	y									51.97297501564026	
1	41.88952398300171	pulse	0	t									52.57302498817444	
1	43.48988604545593	pulse	0	t									54.17338705062866	
1	45.0900981426239	pulse	0	t									55.77359914779663	
1	45.26511812210083	response	0	y									55.94861912727356	
1	46.6903121471405	pulse	0	t									57.37381315231323	
1	48.29044508934021	pulse	0	t									58.97394609451294	
1	49.840737104415894	response	0	y									60.52423810958862	
1	49.89076209068298	pulse	0	t									60.57426309585571	
1	51.491106033325195	pulse	0	t									62.174607038497925	
1	53.08478307723999	pulse	0	t									63.76828408241272	
1	53.76634621620178	response	0	y									64.44984722137451	
1	54.684903144836426	pulse	0	t									65.36840415000916	
1	56.28505802154541	pulse	0	t									66.96855902671814	
1	57.50853514671326	response	0	y									68.19203615188599	
1	57.885377168655396	pulse	0	t									68.56887817382812	
1	59.485735177993774	pulse	0	t									70.1692361831665	
1	61.08592414855957	pulse	0	t									71.7694251537323	
1	62.68608212471008	pulse	0	t									73.36958312988281	
2	62.72584915161133	stim	0		0	0.16666667	0.0666666666667	270.0	24.0	0.0333333333333	0.1333333333333	0.0666666666667	73.40935015678406	23.99524998664856
2	62.85589814186096	response	0	y		0.16666667	0.0666666666667	270.0	24.0	0.0333333333333	0.1333333333333	0.0666666666667	73.53939914703369	
2	64.28481817245483	pulse	0	t		0.16666667	0.0666666666667	270.0	24.0	0.0333333333333	0.1333333333333	0.0666666666667	74.96831917762756	
2	65.55780816078186	response	0	y		0.16666667	0.0666666666667	270.0	24.0	0.0333333333333	0.1333333333333	0.0666666666667	76.24130916595459	
2	65.88488006591797	pulse	0	t		0.16666667	0.0666666666667	270.0	24.0	0.0333333333333	0.1333333333333	0.0666666666667	76.5683810710907	
2	67.48497915267944	pulse	0	t		0.16666667	0.0666666666667	270.0	24.0	0.0333333333333	0.1333333333333	0.0666666666667	78.16848015785217	
2	69.0849289894104	pulse	0	t		0.16666667	0.0666666666667	270.0	24.0	0.0333333333333	0.1333333333333	0.0666666666667	79.76842999458313	
2	70.6849570274353	pulse	0	t		0.16666667	0.0666666666667	270.0	24.0	0.0333333333333	0.1333333333333	0.0666666666667	81.36845803260803	
2	71.90891909599304	response	0	y		0.16666667	0.0666666666667	270.0	24.0	0.0333333333333	0.1333333333333	0.0666666666667	82.59242010116577	
2	72.28490209579468	pulse	0	t		0.16666667	0.0666666666667	270.0	24.0	0.0333333333333	0.1333333333333	0.0666666666667	82.96840310096741	
2	73.88492321968079	pulse	0	t		0.16666667	0.0666666666667	270.0	24.0	0.0333333333333	0.1333333333333	0.0666666666667	84.56842422485352	
2	75.48498916625977	pulse	0	t		0.16666667	0.0666666666667	270.0	24.0	0.0333333333333	0.1333333333333	0.0666666666667	86.1684901714325	
2	77.08502316474915	pulse	0	t		0.16666667	0.0666666666667	270.0	24.0	0.0333333333333	0.1333333333333	0.0666666666667	87.76852416992188	
2	77.55996012687683	response	0	y		0.16666667	0.0666666666667	270.0	24.0	0.0333333333333	0.1333333333333	0.0666666666667	88.24346113204956	
2	78.68503713607788	pulse	0	t		0.16666667	0.0666666666667	270.0	24.0	0.0333333333333	0.1333333333333	0.0666666666667	89.36853814125061	
2	80.28507113456726	pulse	0	t		0.16666667	0.0666666666667	270.0	24.0	0.0333333333333	0.1333333333333	0.0666666666667	90.96857213973999	
2	80.42190217971802	response	0	y		0.16666667	0.0666666666667	270.0	24.0	0.0333333333333	0.1333333333333	0.0666666666667	91.10540318489075	
2	81.8850622177124	pulse	0	t		0.16666667	0.0666666666667	270.0	24.0	0.0333333333333	0.1333333333333	0.0666666666667	92.56856322288513	
2	82.66108703613281	response	0	y		0.16666667	0.0666666666667	270.0	24.0	0.0333333333333	0.1333333333333	0.0666666666667	93.34458804130554	
2	83.48509907722473	pulse	0	t		0.16666667	0.0666666666667	270.0	24.0	0.0333333333333	0.1333333333333	0.0666666666667	94.16860008239746	
2	85.08412909507751	pulse	0	t		0.16666667	0.0666666666667	270.0	24.0	0.0333333333333	0.1333333333333	0.0666666666667	95.76763010025024	
2	86.68514704704285	pulse	0	t		0.16666667	0.0666666666667	270.0	24.0	0.0333333333333	0.1333333333333	0.0666666666667	97.36864805221558	
3	86.72109913825989	stim	0		0	0.16666667	0.0666666666667	0.0	48.0	0.0333333333333	0.1333333333333	0.0666666666667	97.40460014343262	24.00364089012146
3	88.28417015075684	pulse	0	t		0.16666667	0.0666666666667	0.0	48.0	0.0333333333333	0.1333333333333	0.0666666666667	98.96767115592957	
3	89.17614006996155	response	0	y		0.16666667	0.0666666666667	0.0	48.0	0.0333333333333	0.1333333333333	0.0666666666667	99.85964107513428	
3	89.88413500785828	pulse	0	t		0.16666667	0.0666666666667	0.0	48.0	0.0333333333333	0.1333333333333	0.0666666666667	100.567636013031	
3	91.48422718048096	pulse	0	t		0.16666667	0.0666666666667	0.0	48.0	0.0333333333333	0.1333333333333	0.0666666666667	102.16772818565369	
3	91.93714904785156	response	0	y		0.16666667	0.0666666666667	0.0	48.0	0.0333333333333	0.1333333333333	0.0666666666667	102.62065005302429	
3	93.08423900604248	pulse	0	t		0.16666667	0.0666666666667	0.0	48.0	0.0333333333333	0.1333333333333	0.0666666666667	103.76774001121521	
3	94.68420314788818	pulse	0	t		0.16666667	0.0666666666667	0.0	48.0	0.0333333333333	0.1333333333333	0.0666666666667	105.36770415306091	
3	96.28426003456116	pulse	0	t		0.16666667	0.0666666666667	0.0	48.0	0.0333333333333	0.1333333333333	0.0666666666667	106.96776103973389	
3	97.88428401947021	pulse	0	t		0.16666667	0.0666666666667	0.0	48.0	0.0333333333333	0.1333333333333	0.0666666666667	108.56778502464294	
3	99.4843180179596	pulse	0	t		0.16666667	0.0666666666667	0.0	48.0	0.0333333333333	0.1333333333333	0.0666666666667	110.16781902313232	
3	100.11352705955505	response	0	y		0.16666667	0.0666666666667	0.0	48.0	0.0333333333333	0.1333333333333	0.0666666666667	110.79702806472778	
3	101.0843141078949	pulse	0	t		0.16666667	0.0666666666667	0.0	48.0	0.0333333333333	0.1333333333333	0.0666666666667	111.76781511306763	
3	102.43131303787231	response	0	y		0.16666667	0.0666666666667	0.0	48.0	0.0333333333333	0.1333333333333	0.0666666666667	113.11481404304504	
3	102.68425416946411	pulse	0	t		0.16666667	0.0666666666667	0.0	48.0	0.0333333333333	0.1333333333333	0.0666666666667	113.36775517463684	
3	104.28436017036438	pulse	0	t		0.16666667	0.0666666666667	0.0	48.0	0.0333333333333	0.1333333333333	0.0666666666667	114.96786117553711	
3	105.88448905944824	pulse	0	t		0.16666667	0.0666666666667	0.0	48.0	0.0333333333333	0.1333333333333	0.0666666666667	116.56799006462097	
3	107.02338600158691	response	0	y		0.16666667	0.0666666666667	0.0	48.0	0.0333333333333	0.1333333333333	0.0666666666667	117.70688700675964	
3	107.48434519767761	pulse	0	t		0.16666667	0.0666666666667	0.0	48.0	0.0333333333333	0.1333333333333	0.0666666666667	118.16784620285034	
3	109.04700016975403	response	0	y		0.16666667	0.0666666666667	0.0	48.0	0.0333333333333	0.1333333333333	0.0666666666667	119.73050117492676	
3	109.08427309989929	pulse	0	t		0.16666667	0.0666666666667	0.0	48.0	0.0333333333333	0.1333333333333	0.0666666666667	119.76777410507202	
3	110.68444204330444	pulse	0	t		0.16666667	0.0666666666667	0.0	48.0	0.0333333333333	0.1333333333333	0.0666666666667	121.36794304847717	
4	110.72474002838135	stim	0		0	-1.0	1.0	-1.0	72.0	0.0333333333333	0.1333333333333	0.0666666666667	121.40824103355408	15.99405312538147
4	112.28539109230042	pulse	0	t		-1.0	1.0	-1.0	72.0	0.0333333333333	0.1333333333333	0.0666666666667	122.96889209747314	
4	112.43344402313232	response	0	y		-1.0	1.0	-1.0	72.0	0.0333333333333	0.1333333333333	0.0666666666667	123.11694502830505	
4	113.88557410240173	pulse	0	t		-1.0	1.0	-1.0	72.0	0.0333333333333	0.1333333333333	0.0666666666667	124.56907510757446	
4	114.87736010551453	response	0	y		-1.0	1.0	-1.0	72.0	0.0333333333333	0.1333333333333	0.0666666666667	125.56086111068726	
4	115.48570919036865	pulse	0	t		-1.0	1.0	-1.0	72.0	0.0333333333333	0.1333333333333	0.0666666666667	126.16921019554138	
4	116.99257516860962	response	0	y		-1.0	1.0	-1.0	72.0	0.0333333333333	0.1333333333333	0.0666666666667	127.67607617378235	
4	117.08601021766663	pulse	0	t		-1.0	1.0	-1.0	72.0	0.0333333333333	0.1333333333333	0.0666666666667	127.76951122283936	
4	118.68614101409912	pulse	0	t		-1.0	1.0	-1.0	72.0	0.0333333333333	0.1333333333333	0.0666666666667	129.36964201927185	
4	120.28469204902649	pulse	0	t		-1.0	1.0	-1.0	72.0	0.0333333333333	0.1333333333333	0.0666666666667	130.96819305419922	
4	121.37832617759705	response	0	y		-1.0	1.0	-1.0	72.0	0.0333333333333	0.1333333333333	0.0666666666667	132.06182718276978	
4	121.88487815856934	pulse	0	t		-1.0	1.0	-1.0	72.0	0.0333333333333	0.1333333333333	0.0666666666667	132.56837916374207	
4	123.4851131439209	pulse	0	t		-1.0	1.0	-1.0	72.0	0.0333333333333	0.1333333333333	0.0666666666667	134.16861414909363	
4	124.81024408340454	response	0	y		-1.0	1.0	-1.0	72.0	0.0333333333333	0.1333333333333	0.0666666666667	135.49374508857727	
4	125.08524012565613	pulse	0	t		-1.0	1.0	-1.0	72.0	0.0333333333333	0.1333333333333	0.0666666666667	135.76874113082886	
4	126.68556618690491	pulse	0	t		-1.0	1.0	-1.0	72.0	0.0333333333333	0.1333333333333	0.0666666666667	137.36906719207764	
5	126.71879315376282	stim	0		0	0.16666667	0.0666666666667	90.0	88.0	0.0333333333333	0.1333333333333	0.0666666666667	137.40229415893555	24.00360894203186
5	126.9395911693573	response	0	y		0.16666667	0.0666666666667	90.0	88.0	0.0333333333333	0.1333333333333	0.0666666666667	137.62309217453003	
5	128.28464913368225	pulse	0	t		0.16666667	0.0666666666667	90.0	88.0	0.0333333333333	0.1333333333333	0.0666666666667	138.96815013885498	
5	129.88466620445251	pulse	0	t		0.16666667	0.0666666666667	90.0	88.0	0.0333333333333	0.1333333333333	0.0666666666667	140.56816720962524	
5	131.48476910591125	pulse	0	t		0.16666667	0.0666666666667	90.0	88.0	0.0333333333333	0.1333333333333	0.0666666666667	142.16827011108398	
5	133.08485412597656	pulse	0	t		0.16666667	0.0666666666667	90.0	88.0	0.0333333333333	0.1333333333333	0.0666666666667	143.7683551311493	
5	133.90178203582764	response	0	y		0.16666667	0.0666666666667	90.0	88.0	0.0333333333333	0.1333333333333	0.0666666666667	144.58528304100037	
5	134.6847472190857	pulse	0	t		0.16666667	0.0666666666667	90.0	88.0	0.0333333333333	0.1333333333333	0.0666666666667	145.36824822425842	
5	136.28479504585266	pulse	0	t		0.16666667	0.0666666666667	90.0	88.0	0.0333333333333	0.1333333333333	0.0666666666667	146.9682960510254	
5	137.08976316452026	response	0	y		0.16666667	0.0666666666667	90.0	88.0	0.0333333333333	0.1333333333333	0.0666666666667	147.773264169693	
5	137.88480615615845	pulse	0	t		0.16666667	0.0666666666667	90.0	88.0	0.0333333333333	0.1333333333333	0.0666666666667	148.56830716133118	
5	137.93161416053772	response	0	y		0.16666667	0.0666666666667	90.0	88.0	0.0333333333333	0.1333333333333	0.0666666666667	148.61511516571045	
5	139.4848530292511	pulse	0	t		0.16666667	0.0666666666667	90.0	88.0	0.0333333333333	0.1333333333333	0.0666666666667	150.16835403442383	
5	141.08479499816895	pulse	0	t		0.16666667	0.0666666666667	90.0	88.0	0.0333333333333	0.1333333333333	0.0666666666667	151.76829600334167	
5	142.68486905097961	pulse	0	t		0.16666667	0.0666666666667	90.0	88.0	0.0333333333333	0.1333333333333	0.0666666666667	153.36837005615234	
5	142.93076705932617	response	0	y		0.16666667	0.0666666666667	90.0	88.0	0.0333333333333	0.1333333333333	0.0666666666667	153.6142680644989	
5	144.2848961353302	pulse	0	t		0.16666667	0.0666666666667	90.0	88.0	0.0333333333333	0.1333333333333	0.0666666666667	154.96839714050293	
5	145.88494420051575	pulse	0	t		0.16666667	0.0666666666667	90.0	88.0	0.0333333333333	0.1333333333333	0.0666666666667	156.56844520568848	
5	147.48494219779968	pulse	0	t		0.16666667	0.0666666666667	90.0	88.0	0.0333333333333	0.1333333333333	0.0666666666667	158.1684432029724	
5	149.08489608764648	pulse	0	t		0.16666667	0.0666666666667	90.0	88.0	0.0333333333333	0.1333333333333	0.0666666666667	159.7683970928192	
5	150.68493700027466	pulse	0	t		0.16666667	0.0666666666667	90.0	88.0	0.0333333333333	0.1333333333333	0.0666666666667	161.3684380054474	
6	150.72240209579468	stim	0		0	0.16666667	0.0666666666667	180.0	112.0	0.0333333333333	0.1333333333333	0.0666666666667	161.4059031009674	24.003637075424194
6	152.28503012657166	pulse	0	t		0.16666667	0.0666666666667	180.0	112.0	0.0333333333333	0.1333333333333	0.0666666666667	162.96853113174438	
6	152.50286507606506	response	0	y		0.16666667	0.0666666666667	180.0	112.0	0.0333333333333	0.1333333333333	0.0666666666667	163.1863660812378	
6	153.88497805595398	pulse	0	t		0.16666667	0.0666666666667	180.0	112.0	0.0333333333333	0.1333333333333	0.0666666666667	164.5684790611267	
6	155.48518109321594	pulse	0	t		0.16666667	0.0666666666667	180.0	112.0	0.0333333333333	0.1333333333333	0.0666666666667	166.16868209838867	
6	155.59500408172607	response	0	y		0.16666667	0.0666666666667	180.0	112.0	0.0333333333333	0.1333333333333	0.0666666666667	166.2785050868988	
6	157.08506608009338	pulse	0	t		0.16666667	0.0666666666667	180.0	112.0	0.0333333333333	0.1333333333333	0.0666666666667	167.7685670852661	
6	158.50305819511414	response	0	y		0.16666667	0.0666666666667	180.0	112.0	0.0333333333333	0.1333333333333	0.0666666666667	169.18655920028687	
6	158.68499207496643	pulse	0	t		0.16666667	0.0666666666667	180.0	112.0	0.0333333333333	0.1333333333333	0.0666666666667	169.36849308013916	
6	160.28508019447327	pulse	0	t		0.16666667	0.0666666666667	180.0	112.0	0.0333333333333	0.1333333333333	0.0666666666667	170.968581199646	
6	160.92303919792175	response	0	y		0.16666667	0.0666666666667	180.0	112.0	0.0333333333333	0.1333333333333	0.0666666666667	171.60654020309448	
6	161.8851020336151	pulse	0	t		0.16666667	0.0666666666667	180.0	112.0	0.0333333333333	0.1333333333333	0.0666666666667	172.56860303878784	
6	163.48515915870667	pulse	0	t		0.16666667	0.0666666666667	180.0	112.0	0.0333333333333	0.1333333333333	0.0666666666667	174.1686601638794	
6	165.08517813682556	pulse	0	t		0.16666667	0.0666666666667	180.0	112.0	0.0333333333333	0.1333333333333	0.0666666666667	175.7686791419983	
6	166.6852171421051	pulse	0	t		0.16666667	0.0666666666667	180.0	112.0	0.0333333333333	0.1333333333333	0.0666666666667	177.36871814727783	
6	168.28520512580872	pulse	0	t		0.16666667	0.0666666666667	180.0	112.0	0.0333333333333	0.1333333333333	0.0666666666667	178.96870613098145	
6	169.8852300643921	pulse	0	t		0.16666667	0.0666666666667	180.0	112.0	0.0333333333333	0.1333333333333	0.0666666666667	180.56873106956482	
6	171.48525619506836	pulse	0	t		0.16666667	0.0666666666667	180.0	112.0	0.0333333333333	0.1333333333333	0.0666666666667	182.1687572002411	
6	173.0853111743927	pulse	0	t		0.16666667	0.0666666666667	180.0	112.0	0.0333333333333	0.1333333333333	0.0666666666667	183.76881217956543	
6	173.67727899551392	response	0	y		0.16666667	0.0666666666667	180.0	112.0	0.0333333333333	0.1333333333333	0.0666666666667	184.36078000068665	
6	174.6852421760559	pulse	0	t		0.16666667	0.0666666666667	180.0	112.0	0.0333333333333	0.1333333333333	0.0666666666667	185.36874318122864	
7	174.72603917121887	stim	0		0	-1.0	1.0	-1.0	136.0	0.0333333333333	0.1333333333333	0.0666666666667	185.4095401763916	15.994089841842651
7	176.08652520179749	response	0	y		-1.0	1.0	-1.0	136.0	0.0333333333333	0.1333333333333	0.0666666666667	186.77002620697021	
7	176.28645420074463	pulse	0	t		-1.0	1.0	-1.0	136.0	0.0333333333333	0.1333333333333	0.0666666666667	186.96995520591736	
7	177.88671612739563	pulse	0	t		-1.0	1.0	-1.0	136.0	0.0333333333333	0.1333333333333	0.0666666666667	188.57021713256836	
7	179.43524599075317	response	0	y		-1.0	1.0	-1.0	136.0	0.0333333333333	0.1333333333333	0.0666666666667	190.1187469959259	
7	179.48521614074707	pulse	0	t		-1.0	1.0	-1.0	136.0	0.0333333333333	0.1333333333333	0.0666666666667	190.1687171459198	
7	181.08718013763428	pulse	0	t		-1.0	1.0	-1.0	136.0	0.0333333333333	0.1333333333333	0.0666666666667	191.770681142807	
7	182.22727704048157	response	0	y		-1.0	1.0	-1.0	136.0	0.0333333333333	0.1333333333333	0.0666666666667	192.9107780456543	
7	182.68565320968628	pulse	0	t		-1.0	1.0	-1.0	136.0	0.0333333333333	0.1333333333333	0.0666666666667	193.369154214859	
7	184.28584098815918	pulse	0	t		-1.0	1.0	-1.0	136.0	0.0333333333333	0.1333333333333	0.0666666666667	194.9693419933319	
7	185.83609700202942	response	0	y		-1.0	1.0	-1.0	136.0	0.0333333333333	0.1333333333333	0.0666666666667	196.51959800720215	
7	185.8861541748047	pulse	0	t		-1.0	1.0	-1.0	136.0	0.0333333333333	0.1333333333333	0.0666666666667	196.56965517997742	
7	187.48634719848633	pulse	0	t		-1.0	1.0	-1.0	136.0	0.0333333333333	0.1333333333333	0.0666666666667	198.16984820365906	
7	188.31156420707703	response	0	y		-1.0	1.0	-1.0	136.0	0.0333333333333	0.1333333333333	0.0666666666667	198.99506521224976	
7	189.08660101890564	pulse	0	t		-1.0	1.0	-1.0	136.0	0.0333333333333	0.1333333333333	0.0666666666667	199.77010202407837	
7	190.68680214881897	pulse	0	t		-1.0	1.0	-1.0	136.0	0.0333333333333	0.1333333333333	0.0666666666667	201.3703031539917	
8	190.72012901306152	stim	0		0	-1.0	1.0	-1.0	152.0	0.0333333333333	0.1333333333333	0.0666666666667	201.40363001823425	16.002385139465332
8	191.71199703216553	response	0	y		-1.0	1.0	-1.0	152.0	0.0333333333333	0.1333333333333	0.0666666666667	202.39549803733826	
8	192.287043094635	pulse	0	t		-1.0	1.0	-1.0	152.0	0.0333333333333	0.1333333333333	0.0666666666667	202.97054409980774	
8	193.88735914230347	pulse	0	t		-1.0	1.0	-1.0	152.0	0.0333333333333	0.1333333333333	0.0666666666667	204.5708601474762	
8	195.48758721351624	pulse	0	t		-1.0	1.0	-1.0	152.0	0.0333333333333	0.1333333333333	0.0666666666667	206.17108821868896	
8	196.8129060268402	response	0	y		-1.0	1.0	-1.0	152.0	0.0333333333333	0.1333333333333	0.0666666666667	207.49640703201294	
8	197.0878391265869	pulse	0	t		-1.0	1.0	-1.0	152.0	0.0333333333333	0.1333333333333	0.0666666666667	207.77134013175964	
8	198.68804812431335	pulse	0	t		-1.0	1.0	-1.0	152.0	0.0333333333333	0.1333333333333	0.0666666666667	209.37154912948608	
8	200.28825306892395	pulse	0	t		-1.0	1.0	-1.0	152.0	0.0333333333333	0.1333333333333	0.0666666666667	210.97175407409668	
8	201.46338415145874	response	0	y		-1.0	1.0	-1.0	152.0	0.0333333333333	0.1333333333333	0.0666666666667	212.14688515663147	
8	201.88853216171265	pulse	0	t		-1.0	1.0	-1.0	152.0	0.0333333333333	0.1333333333333	0.0666666666667	212.57203316688538	
8	203.48881912231445	pulse	0	t		-1.0	1.0	-1.0	152.0	0.0333333333333	0.1333333333333	0.0666666666667	214.17232012748718	
8	205.08917903900146	pulse	0	t		-1.0	1.0	-1.0	152.0	0.0333333333333	0.1333333333333	0.0666666666667	215.7726800441742	
8	206.6892750263214	pulse	0	t		-1.0	1.0	-1.0	152.0	0.0333333333333	0.1333333333333	0.0666666666667	217.37277603149414	
9	206.72251415252686	stim	0		0	0.16666667	0.0666666666667	180.0	168.0	0.0333333333333	0.1333333333333	0.0666666666667	217.40601515769958	24.003597021102905
9	206.85866117477417	response	0	y		0.16666667	0.0666666666667	180.0	168.0	0.0333333333333	0.1333333333333	0.0666666666667	217.5421621799469	
9	208.28472709655762	pulse	0	t		0.16666667	0.0666666666667	180.0	168.0	0.0333333333333	0.1333333333333	0.0666666666667	218.96822810173035	
9	209.08874607086182	response	0	y		0.16666667	0.0666666666667	180.0	168.0	0.0333333333333	0.1333333333333	0.0666666666667	219.77224707603455	
9	209.8847360610962	pulse	0	t		0.16666667	0.0666666666667	180.0	168.0	0.0333333333333	0.1333333333333	0.0666666666667	220.56823706626892	
9	210.96569919586182	response	0	y		0.16666667	0.0666666666667	180.0	168.0	0.0333333333333	0.1333333333333	0.0666666666667	221.64920020103455	
9	211.48467898368835	pulse	0	t		0.16666667	0.0666666666667	180.0	168.0	0.0333333333333	0.1333333333333	0.0666666666667	222.16817998886108	
9	213.0847611427307	pulse	0	t		0.16666667	0.0666666666667	180.0	168.0	0.0333333333333	0.1333333333333	0.0666666666667	223.76826214790344	
9	214.68476009368896	pulse	0	t		0.16666667	0.0666666666667	180.0	168.0	0.0333333333333	0.1333333333333	0.0666666666667	225.3682610988617	
9	214.82362604141235	response	0	y		0.16666667	0.0666666666667	180.0	168.0	0.0333333333333	0.1333333333333	0.0666666666667	225.50712704658508	
9	216.2847762107849	pulse	0	t		0.16666667	0.0666666666667	180.0	168.0	0.0333333333333	0.1333333333333	0.0666666666667	226.96827721595764	
9	217.88486218452454	pulse	0	t		0.16666667	0.0666666666667	180.0	168.0	0.0333333333333	0.1333333333333	0.0666666666667	228.56836318969727	
9	219.48490118980408	pulse	0	t		0.16666667	0.0666666666667	180.0	168.0	0.0333333333333	0.1333333333333	0.0666666666667	230.1684021949768	
9	221.0048611164093	response	0	y		0.16666667	0.0666666666667	180.0	168.0	0.0333333333333	0.1333333333333	0.0666666666667	231.68836212158203	
9	221.08474707603455	pulse	0	t		0.16666667	0.0666666666667	180.0	168.0	0.0333333333333	0.1333333333333	0.0666666666667	231.76824808120728	
9	222.68487906455994	pulse	0	t		0.16666667	0.0666666666667	180.0	168.0	0.0333333333333	0.1333333333333	0.0666666666667	233.36838006973267	
9	223.89089012145996	response	0	y		0.16666667	0.0666666666667	180.0	168.0	0.0333333333333	0.1333333333333	0.0666666666667	234.5743911266327	
9	224.28490018844604	pulse	0	t		0.16666667	0.0666666666667	180.0	168.0	0.0333333333333	0.1333333333333	0.0666666666667	234.96840119361877	
9	225.8849081993103	pulse	0	t		0.16666667	0.0666666666667	180.0	168.0	0.0333333333333	0.1333333333333	0.0666666666667	236.56840920448303	
9	226.6539330482483	response	0	y		0.16666667	0.0666666666667	180.0	168.0	0.0333333333333	0.1333333333333	0.0666666666667	237.33743405342102	
9	227.48489618301392	pulse	0	t		0.16666667	0.0666666666667	180.0	168.0	0.0333333333333	0.1333333333333	0.0666666666667	238.16839718818665	
9	229.08495903015137	pulse	0	t		0.16666667	0.0666666666667	180.0	168.0	0.0333333333333	0.1333333333333	0.0666666666667	239.7684600353241	
9	230.68501019477844	pulse	0	t		0.16666667	0.0666666666667	180.0	168.0	0.0333333333333	0.1333333333333	0.0666666666667	241.36851119995117	
10	230.72611117362976	stim	0		0	0.16666667	0.0666666666667	90.0	192.0	0.0333333333333	0.1333333333333	0.0666666666667	241.4096121788025	23.99520182609558
10	231.3846402168274	response	0	y		0.16666667	0.0666666666667	90.0	192.0	0.0333333333333	0.1333333333333	0.0666666666667	242.06814122200012	
10	232.28499603271484	pulse	0	t		0.16666667	0.0666666666667	90.0	192.0	0.0333333333333	0.1333333333333	0.0666666666667	242.96849703788757	
10	233.47299909591675	response	0	y		0.16666667	0.0666666666667	90.0	192.0	0.0333333333333	0.1333333333333	0.0666666666667	244.15650010108948	
10	233.88497519493103	pulse	0	t		0.16666667	0.0666666666667	90.0	192.0	0.0333333333333	0.1333333333333	0.0666666666667	244.56847620010376	
10	235.48503303527832	pulse	0	t		0.16666667	0.0666666666667	90.0	192.0	0.0333333333333	0.1333333333333	0.0666666666667	246.16853404045105	
10	237.08503699302673	pulse	0	t		0.16666667	0.0666666666667	90.0	192.0	0.0333333333333	0.1333333333333	0.0666666666667	247.76853799819946	
10	237.74610304832458	response	0	y		0.16666667	0.0666666666667	90.0	192.0	0.0333333333333	0.1333333333333	0.0666666666667	248.42960405349731	
10	238.68505120277405	pulse	0	t		0.16666667	0.0666666666667	90.0	192.0	0.0333333333333	0.1333333333333	0.0666666666667	249.36855220794678	
10	240.28513503074646	pulse	0	t		0.16666667	0.0666666666667	90.0	192.0	0.0333333333333	0.1333333333333	0.0666666666667	250.9686360359192	
10	241.8851761817932	pulse	0	t		0.16666667	0.0666666666667	90.0	192.0	0.0333333333333	0.1333333333333	0.0666666666667	252.56867718696594	
10	243.48517203330994	pulse	0	t		0.16666667	0.0666666666667	90.0	192.0	0.0333333333333	0.1333333333333	0.0666666666667	254.16867303848267	
10	245.08517408370972	pulse	0	t		0.16666667	0.0666666666667	90.0	192.0	0.0333333333333	0.1333333333333	0.0666666666667	255.76867508888245	
10	246.6851360797882	pulse	0	t		0.16666667	0.0666666666667	90.0	192.0	0.0333333333333	0.1333333333333	0.0666666666667	257.36863708496094	
10	247.53717613220215	response	0	y		0.16666667	0.0666666666667	90.0	192.0	0.0333333333333	0.1333333333333	0.0666666666667	258.2206771373749	
10	248.28517317771912	pulse	0	t		0.16666667	0.0666666666667	90.0	192.0	0.0333333333333	0.1333333333333	0.0666666666667	258.96867418289185	
10	249.88528418540955	pulse	0	t		0.16666667	0.0666666666667	90.0	192.0	0.0333333333333	0.1333333333333	0.0666666666667	260.5687851905823	
10	251.4852511882782	pulse	0	t		0.16666667	0.0666666666667	90.0	192.0	0.0333333333333	0.1333333333333	0.0666666666667	262.1687521934509	
10	253.08530521392822	pulse	0	t		0.16666667	0.0666666666667	90.0	192.0	0.0333333333333	0.1333333333333	0.0666666666667	263.76880621910095	
10	254.68532609939575	pulse	0	t		0.16666667	0.0666666666667	90.0	192.0	0.0333333333333	0.1333333333333	0.0666666666667	265.3688271045685	
11	254.72131299972534	stim	0		0	-1.0	1.0	-1.0	216.0	0.0333333333333	0.1333333333333	0.0666666666667	265.40481400489807	16.0023992061615
11	254.97146701812744	response	0	y		-1.0	1.0	-1.0	216.0	0.0333333333333	0.1333333333333	0.0666666666667	265.65496802330017	
11	256.2884430885315	pulse	0	t		-1.0	1.0	-1.0	216.0	0.0333333333333	0.1333333333333	0.0666666666667	266.9719440937042	
11	257.15706610679626	response	0	y		-1.0	1.0	-1.0	216.0	0.0333333333333	0.1333333333333	0.0666666666667	267.840567111969	
11	257.8886251449585	pulse	0	t		-1.0	1.0	-1.0	216.0	0.0333333333333	0.1333333333333	0.0666666666667	268.5721261501312	
11	259.4887762069702	pulse	0	t		-1.0	1.0	-1.0	216.0	0.0333333333333	0.1333333333333	0.0666666666667	270.17227721214294	
11	260.73074102401733	response	0	y		-1.0	1.0	-1.0	216.0	0.0333333333333	0.1333333333333	0.0666666666667	271.41424202919006	
11	261.0890681743622	pulse	0	t		-1.0	1.0	-1.0	216.0	0.0333333333333	0.1333333333333	0.0666666666667	271.7725691795349	
11	262.68931221961975	pulse	0	t		-1.0	1.0	-1.0	216.0	0.0333333333333	0.1333333333333	0.0666666666667	273.3728132247925	
11	264.18961215019226	response	0	y		-1.0	1.0	-1.0	216.0	0.0333333333333	0.1333333333333	0.0666666666667	274.873113155365	
11	264.28963804244995	pulse	0	t		-1.0	1.0	-1.0	216.0	0.0333333333333	0.1333333333333	0.0666666666667	274.9731390476227	
11	265.88978815078735	pulse	0	t		-1.0	1.0	-1.0	216.0	0.0333333333333	0.1333333333333	0.0666666666667	276.5732891559601	
11	267.4901120662689	pulse	0	t		-1.0	1.0	-1.0	216.0	0.0333333333333	0.1333333333333	0.0666666666667	278.17361307144165	
11	269.0902922153473	pulse	0	t		-1.0	1.0	-1.0	216.0	0.0333333333333	0.1333333333333	0.0666666666667	279.77379322052	
11	269.6070511341095	response	0	y		-1.0	1.0	-1.0	216.0	0.0333333333333	0.1333333333333	0.0666666666667	280.2905521392822	
11	270.69046807289124	pulse	0	t		-1.0	1.0	-1.0	216.0	0.0333333333333	0.1333333333333	0.0666666666667	281.37396907806396	
12	270.72371220588684	stim	0		0	0.16666667	0.0666666666667	0.0	232.0	0.0333333333333	0.1333333333333	0.0666666666667	281.40721321105957	24.003556966781616
12	272.28556203842163	pulse	0	t		0.16666667	0.0666666666667	0.0	232.0	0.0333333333333	0.1333333333333	0.0666666666667	282.96906304359436	
12	273.8845691680908	pulse	0	t		0.16666667	0.0666666666667	0.0	232.0	0.0333333333333	0.1333333333333	0.0666666666667	284.56807017326355	
12	274.19653820991516	response	0	y		0.16666667	0.0666666666667	0.0	232.0	0.0333333333333	0.1333333333333	0.0666666666667	284.8800392150879	
12	275.48452711105347	pulse	0	t		0.16666667	0.0666666666667	0.0	232.0	0.0333333333333	0.1333333333333	0.0666666666667	286.1680281162262	
12	277.08462500572205	pulse	0	t		0.16666667	0.0666666666667	0.0	232.0	0.0333333333333	0.1333333333333	0.0666666666667	287.7681260108948	
12	278.6845760345459	pulse	0	t		0.16666667	0.0666666666667	0.0	232.0	0.0333333333333	0.1333333333333	0.0666666666667	289.3680770397186	
12	280.2846531867981	pulse	0	t		0.16666667	0.0666666666667	0.0	232.0	0.0333333333333	0.1333333333333	0.0666666666667	290.9681541919708	
12	281.8846650123596	pulse	0	t		0.16666667	0.0666666666667	0.0	232.0	0.0333333333333	0.1333333333333	0.0666666666667	292.56816601753235	
12	283.48459815979004	pulse	0	t		0.16666667	0.0666666666667	0.0	232.0	0.0333333333333	0.1333333333333	0.0666666666667	294.16809916496277	
12	283.5474820137024	response	0	y		0.16666667	0.0666666666667	0.0	232.0	0.0333333333333	0.1333333333333	0.0666666666667	294.2309830188751	
12	285.08463406562805	pulse	0	t		0.16666667	0.0666666666667	0.0	232.0	0.0333333333333	0.1333333333333	0.0666666666667	295.7681350708008	
12	286.1847381591797	response	0	y		0.16666667	0.0666666666667	0.0	232.0	0.0333333333333	0.1333333333333	0.0666666666667	296.8682391643524	
12	286.6846032142639	pulse	0	t		0.16666667	0.0666666666667	0.0	232.0	0.0333333333333	0.1333333333333	0.0666666666667	297.36810421943665	
12	288.28476119041443	pulse	0	t		0.16666667	0.0666666666667	0.0	232.0	0.0333333333333	0.1333333333333	0.0666666666667	298.96826219558716	
12	288.6036732196808	response	0	y		0.16666667	0.0666666666667	0.0	232.0	0.0333333333333	0.1333333333333	0.0666666666667	299.2871742248535	
12	289.88488602638245	pulse	0	t		0.16666667	0.0666666666667	0.0	232.0	0.0333333333333	0.1333333333333	0.0666666666667	300.5683870315552	
12	291.4848999977112	pulse	0	t		0.16666667	0.0666666666667	0.0	232.0	0.0333333333333	0.1333333333333	0.0666666666667	302.1684010028839	
12	293.08474707603455	pulse	0	t		0.16666667	0.0666666666667	0.0	232.0	0.0333333333333	0.1333333333333	0.0666666666667	303.7682480812073	
12	293.17162013053894	response	0	y		0.16666667	0.0666666666667	0.0	232.0	0.0333333333333	0.1333333333333	0.0666666666667	303.85512113571167	
12	294.68479919433594	pulse	0	t		0.16666667	0.0666666666667	0.0	232.0	0.0333333333333	0.1333333333333	0.0666666666667	305.36830019950867	
13	294.72726917266846	stim	0		0	0.16666667	0.0666666666667	270.0	256.0	0.0333333333333	0.1333333333333	0.0666666666667	305.4107701778412	23.995275020599365
13	295.9299781322479	response	0	y		0.16666667	0.0666666666667	270.0	256.0	0.0333333333333	0.1333333333333	0.0666666666667	306.61347913742065	
13	296.2848320007324	pulse	0	t		0.16666667	0.0666666666667	270.0	256.0	0.0333333333333	0.1333333333333	0.0666666666667	306.96833300590515	
13	297.884889125824	pulse	0	t		0.16666667	0.0666666666667	270.0	256.0	0.0333333333333	0.1333333333333	0.0666666666667	308.5683901309967	
13	299.48490619659424	pulse	0	t		0.16666667	0.0666666666667	270.0	256.0	0.0333333333333	0.1333333333333	0.0666666666667	310.16840720176697	
13	301.08494305610657	pulse	0	t		0.16666667	0.0666666666667	270.0	256.0	0.0333333333333	0.1333333333333	0.0666666666667	311.7684440612793	
13	301.8619132041931	response	0	y		0.16666667	0.0666666666667	270.0	256.0	0.0333333333333	0.1333333333333	0.0666666666667	312.54541420936584	
13	302.6849021911621	pulse	0	t		0.16666667	0.0666666666667	270.0	256.0	0.0333333333333	0.1333333333333	0.0666666666667	313.36840319633484	
13	304.284912109375	pulse	0	t		0.16666667	0.0666666666667	270.0	256.0	0.0333333333333	0.1333333333333	0.0666666666667	314.96841311454773	
13	305.884966135025	pulse	0	t		0.16666667	0.0666666666667	270.0	256.0	0.0333333333333	0.1333333333333	0.0666666666667	316.56846714019775	
13	307.33999013900757	response	0	y		0.16666667	0.0666666666667	270.0	256.0	0.0333333333333	0.1333333333333	0.0666666666667	318.0234911441803	
13	307.48485016822815	pulse	0	t		0.16666667	0.0666666666667	270.0	256.0	0.0333333333333	0.1333333333333	0.0666666666667	318.1683511734009	
13	309.0850510597229	pulse	0	t		0.16666667	0.0666666666667	270.0	256.0	0.0333333333333	0.1333333333333	0.0666666666667	319.76855206489563	
13	310.5840401649475	response	0	y		0.16666667	0.0666666666667	270.0	256.0	0.0333333333333	0.1333333333333	0.0666666666667	321.26754117012024	
13	310.68487215042114	pulse	0	t		0.16666667	0.0666666666667	270.0	256.0	0.0333333333333	0.1333333333333	0.0666666666667	321.3683731555939	
13	312.2850720882416	pulse	0	t		0.16666667	0.0666666666667	270.0	256.0	0.0333333333333	0.1333333333333	0.0666666666667	322.9685730934143	
13	312.53595304489136	response	0	y		0.16666667	0.0666666666667	270.0	256.0	0.0333333333333	0.1333333333333	0.0666666666667	323.2194540500641	
13	313.8850200176239	pulse	0	t		0.16666667	0.0666666666667	270.0	256.0	0.0333333333333	0.1333333333333	0.0666666666667	324.56852102279663	
13	315.48507618904114	pulse	0	t		0.16666667	0.0666666666667	270.0	256.0	0.0333333333333	0.1333333333333	0.0666666666667	326.16857719421387	
13	316.19214820861816	response	0	y		0.16666667	0.0666666666667	270.0	256.0	0.0333333333333	0.1333333333333	0.0666666666667	326.8756492137909	
13	317.08506321907043	pulse	0	t		0.16666667	0.0666666666667	270.0	256.0	0.0333333333333	0.1333333333333	0.0666666666667	327.76856422424316	
13	318.36714720726013	response	0	y		0.16666667	0.0666666666667	270.0	256.0	0.0333333333333	0.1333333333333	0.0666666666667	329.05064821243286	
13	318.68505215644836	pulse	0	t		0.16666667	0.0666666666667	270.0	256.0	0.0333333333333	0.1333333333333	0.0666666666667	329.3685531616211	
14	318.7225441932678	stim	0		0								329.40604519844055	24.845523834228516
14	320.28974413871765	pulse	0	t									330.9732451438904	
14	321.1831431388855	response	0	y									331.8666441440582	
14	321.88993406295776	pulse	0	t									332.5734350681305	
14	323.490168094635	pulse	0	t									334.17366909980774	
14	324.706995010376	response	0	y									335.3904960155487	
14	325.09035301208496	pulse	0	t									335.7738540172577	
14	326.69053316116333	pulse	0	t									337.37403416633606	
14	328.29091215133667	pulse	0	t									338.9744131565094	
14	329.5929100513458	response	0	y									340.27641105651855	
14	329.891077041626	pulse	0	t									340.5745780467987	
14	331.49130606651306	pulse	0	t									342.1748070716858	
14	332.4598231315613	response	0	y									343.143324136734	
14	333.09161615371704	pulse	0	t									343.77511715888977	
14	334.6851511001587	pulse	0	t									345.3686521053314	
14	335.3602740764618	response	0	y									346.0437750816345	
14	336.28544902801514	pulse	0	t									346.96895003318787	
14	337.88572216033936	pulse	0	t									348.5692231655121	
14	339.48595809936523	pulse	0	t									350.16945910453796	
14	340.4343521595001	response	0	y									351.11785316467285	
14	341.08611011505127	pulse	0	t									351.769611120224	
14	342.68638920783997	pulse	0	t									353.3698902130127	
