trial_nr	onset	event_type	phase	response	nr_frames	bar_width	bar_refresh_time	bar_direction	start_time	bar_blank_duration	bar_blank_interval	bg_stim_refresh_time	onset_abs	duration
0	0.15831589698791504	stim	0		0								69.51677584648132	6.509235143661499
0	6.65941596031189	response	0	space									76.0178759098053	
1	6.667551040649414	stim	0		0								76.02601099014282	40.53967499732971
1	47.17147898674011	pulse	0	t									116.52993893623352	
1	47.207226037979126	stim	1		0								116.56568598747253	0.0007278919219970703
1	47.20795392990112	stim	0		0								116.56641387939453	24.002514123916626
1	48.76746082305908	pulse	0	t									118.12592077255249	
1	50.36597990989685	pulse	0	t									119.72443985939026	
1	50.4074649810791	response	0	y									119.76592493057251	
1	51.96612286567688	pulse	0	t									121.32458281517029	
1	53.5662899017334	pulse	0	t									122.9247498512268	
1	55.16653895378113	pulse	0	t									124.52499890327454	
1	55.87680101394653	response	0	y									125.23526096343994	
1	56.76683282852173	pulse	0	t									126.12529277801514	
1	58.36708903312683	pulse	0	t									127.72554898262024	
1	58.97539401054382	response	0	y									128.33385396003723	
1	59.96733903884888	pulse	0	t									129.32579898834229	
1	61.56744384765625	pulse	0	t									130.92590379714966	
1	63.16790294647217	pulse	0	t									132.52636289596558	
1	64.76805591583252	pulse	0	t									134.12651586532593	
1	66.36827087402344	pulse	0	t									135.72673082351685	
1	67.96840691566467	pulse	0	t									137.32686686515808	
1	69.56868004798889	pulse	0	t									138.9271399974823	
1	71.16899800300598	pulse	0	t									140.5274579524994	
2	71.21046805381775	stim	0		0	0.16666667	0.0666666666667	270.0	24.0	0.0333333333333	0.1333333333333	0.0666666666667	140.56892800331116	24.003658771514893
2	72.73894882202148	response	0	y		0.16666667	0.0666666666667	270.0	24.0	0.0333333333333	0.1333333333333	0.0666666666667	142.0974087715149	
2	72.76488995552063	pulse	0	t		0.16666667	0.0666666666667	270.0	24.0	0.0333333333333	0.1333333333333	0.0666666666667	142.12334990501404	
2	74.36515498161316	pulse	0	t		0.16666667	0.0666666666667	270.0	24.0	0.0333333333333	0.1333333333333	0.0666666666667	143.72361493110657	
2	75.7446939945221	response	0	y		0.16666667	0.0666666666667	270.0	24.0	0.0333333333333	0.1333333333333	0.0666666666667	145.1031539440155	
2	75.96501398086548	pulse	0	t		0.16666667	0.0666666666667	270.0	24.0	0.0333333333333	0.1333333333333	0.0666666666667	145.3234739303589	
2	77.56505584716797	pulse	0	t		0.16666667	0.0666666666667	270.0	24.0	0.0333333333333	0.1333333333333	0.0666666666667	146.92351579666138	
2	79.16508889198303	pulse	0	t		0.16666667	0.0666666666667	270.0	24.0	0.0333333333333	0.1333333333333	0.0666666666667	148.52354884147644	
2	79.19793701171875	response	0	y		0.16666667	0.0666666666667	270.0	24.0	0.0333333333333	0.1333333333333	0.0666666666667	148.55639696121216	
2	80.76519393920898	pulse	0	t		0.16666667	0.0666666666667	270.0	24.0	0.0333333333333	0.1333333333333	0.0666666666667	150.1236538887024	
2	82.36523795127869	pulse	0	t		0.16666667	0.0666666666667	270.0	24.0	0.0333333333333	0.1333333333333	0.0666666666667	151.7236979007721	
2	82.52415490150452	response	0	y		0.16666667	0.0666666666667	270.0	24.0	0.0333333333333	0.1333333333333	0.0666666666667	151.88261485099792	
2	83.96524786949158	pulse	0	t		0.16666667	0.0666666666667	270.0	24.0	0.0333333333333	0.1333333333333	0.0666666666667	153.32370781898499	
2	85.56532502174377	pulse	0	t		0.16666667	0.0666666666667	270.0	24.0	0.0333333333333	0.1333333333333	0.0666666666667	154.92378497123718	
2	86.31118893623352	response	0	y		0.16666667	0.0666666666667	270.0	24.0	0.0333333333333	0.1333333333333	0.0666666666667	155.66964888572693	
2	87.16520094871521	pulse	0	t		0.16666667	0.0666666666667	270.0	24.0	0.0333333333333	0.1333333333333	0.0666666666667	156.52366089820862	
2	88.76529383659363	pulse	0	t		0.16666667	0.0666666666667	270.0	24.0	0.0333333333333	0.1333333333333	0.0666666666667	158.12375378608704	
2	90.36529588699341	pulse	0	t		0.16666667	0.0666666666667	270.0	24.0	0.0333333333333	0.1333333333333	0.0666666666667	159.72375583648682	
2	91.96532583236694	pulse	0	t		0.16666667	0.0666666666667	270.0	24.0	0.0333333333333	0.1333333333333	0.0666666666667	161.32378578186035	
2	93.56535601615906	pulse	0	t		0.16666667	0.0666666666667	270.0	24.0	0.0333333333333	0.1333333333333	0.0666666666667	162.92381596565247	
2	95.16531991958618	pulse	0	t		0.16666667	0.0666666666667	270.0	24.0	0.0333333333333	0.1333333333333	0.0666666666667	164.5237798690796	
3	95.21412682533264	stim	0		0	0.16666667	0.0666666666667	0.0	48.0	0.0333333333333	0.1333333333333	0.0666666666667	164.57258677482605	23.995187044143677
3	96.76537990570068	pulse	0	t		0.16666667	0.0666666666667	0.0	48.0	0.0333333333333	0.1333333333333	0.0666666666667	166.1238398551941	
3	96.825199842453	response	0	y		0.16666667	0.0666666666667	0.0	48.0	0.0333333333333	0.1333333333333	0.0666666666667	166.1836597919464	
3	98.36537003517151	pulse	0	t		0.16666667	0.0666666666667	0.0	48.0	0.0333333333333	0.1333333333333	0.0666666666667	167.72382998466492	
3	99.30539202690125	response	0	y		0.16666667	0.0666666666667	0.0	48.0	0.0333333333333	0.1333333333333	0.0666666666667	168.66385197639465	
3	99.96540904045105	pulse	0	t		0.16666667	0.0666666666667	0.0	48.0	0.0333333333333	0.1333333333333	0.0666666666667	169.32386898994446	
3	101.5654079914093	pulse	0	t		0.16666667	0.0666666666667	0.0	48.0	0.0333333333333	0.1333333333333	0.0666666666667	170.9238679409027	
3	102.8924949169159	response	0	y		0.16666667	0.0666666666667	0.0	48.0	0.0333333333333	0.1333333333333	0.0666666666667	172.2509548664093	
3	103.16535902023315	pulse	0	t		0.16666667	0.0666666666667	0.0	48.0	0.0333333333333	0.1333333333333	0.0666666666667	172.52381896972656	
3	104.76553392410278	pulse	0	t		0.16666667	0.0666666666667	0.0	48.0	0.0333333333333	0.1333333333333	0.0666666666667	174.1239938735962	
3	106.36546087265015	pulse	0	t		0.16666667	0.0666666666667	0.0	48.0	0.0333333333333	0.1333333333333	0.0666666666667	175.72392082214355	
3	107.26545000076294	response	0	y		0.16666667	0.0666666666667	0.0	48.0	0.0333333333333	0.1333333333333	0.0666666666667	176.62390995025635	
3	107.96549892425537	pulse	0	t		0.16666667	0.0666666666667	0.0	48.0	0.0333333333333	0.1333333333333	0.0666666666667	177.32395887374878	
3	109.56547284126282	pulse	0	t		0.16666667	0.0666666666667	0.0	48.0	0.0333333333333	0.1333333333333	0.0666666666667	178.92393279075623	
3	110.98655486106873	response	0	y		0.16666667	0.0666666666667	0.0	48.0	0.0333333333333	0.1333333333333	0.0666666666667	180.34501481056213	
3	111.16537690162659	pulse	0	t		0.16666667	0.0666666666667	0.0	48.0	0.0333333333333	0.1333333333333	0.0666666666667	180.52383685112	
3	112.76557087898254	pulse	0	t		0.16666667	0.0666666666667	0.0	48.0	0.0333333333333	0.1333333333333	0.0666666666667	182.12403082847595	
3	113.1382348537445	response	0	y		0.16666667	0.0666666666667	0.0	48.0	0.0333333333333	0.1333333333333	0.0666666666667	182.49669480323792	
3	114.36555886268616	pulse	0	t		0.16666667	0.0666666666667	0.0	48.0	0.0333333333333	0.1333333333333	0.0666666666667	183.72401881217957	
3	115.96552395820618	pulse	0	t		0.16666667	0.0666666666667	0.0	48.0	0.0333333333333	0.1333333333333	0.0666666666667	185.32398390769958	
3	117.56551599502563	pulse	0	t		0.16666667	0.0666666666667	0.0	48.0	0.0333333333333	0.1333333333333	0.0666666666667	186.92397594451904	
3	119.16553688049316	pulse	0	t		0.16666667	0.0666666666667	0.0	48.0	0.0333333333333	0.1333333333333	0.0666666666667	188.52399682998657	
4	119.20931386947632	stim	0		0	-1.0	1.0	-1.0	72.0	0.0333333333333	0.1333333333333	0.0666666666667	188.56777381896973	16.002393007278442
4	120.76807904243469	pulse	0	t		-1.0	1.0	-1.0	72.0	0.0333333333333	0.1333333333333	0.0666666666667	190.1265389919281	
4	122.3682210445404	pulse	0	t		-1.0	1.0	-1.0	72.0	0.0333333333333	0.1333333333333	0.0666666666667	191.7266809940338	
4	123.96843004226685	pulse	0	t		-1.0	1.0	-1.0	72.0	0.0333333333333	0.1333333333333	0.0666666666667	193.32688999176025	
4	125.5688328742981	pulse	0	t		-1.0	1.0	-1.0	72.0	0.0333333333333	0.1333333333333	0.0666666666667	194.9272928237915	
4	127.16910099983215	pulse	0	t		-1.0	1.0	-1.0	72.0	0.0333333333333	0.1333333333333	0.0666666666667	196.52756094932556	
4	128.7692220211029	pulse	0	t		-1.0	1.0	-1.0	72.0	0.0333333333333	0.1333333333333	0.0666666666667	198.1276819705963	
4	129.11085987091064	response	0	y		-1.0	1.0	-1.0	72.0	0.0333333333333	0.1333333333333	0.0666666666667	198.46931982040405	
4	130.36938190460205	pulse	0	t		-1.0	1.0	-1.0	72.0	0.0333333333333	0.1333333333333	0.0666666666667	199.72784185409546	
4	131.96974992752075	pulse	0	t		-1.0	1.0	-1.0	72.0	0.0333333333333	0.1333333333333	0.0666666666667	201.32820987701416	
4	132.77814388275146	response	0	y		-1.0	1.0	-1.0	72.0	0.0333333333333	0.1333333333333	0.0666666666667	202.13660383224487	
4	133.56997990608215	pulse	0	t		-1.0	1.0	-1.0	72.0	0.0333333333333	0.1333333333333	0.0666666666667	202.92843985557556	
4	135.17023587226868	pulse	0	t		-1.0	1.0	-1.0	72.0	0.0333333333333	0.1333333333333	0.0666666666667	204.52869582176208	
5	135.21170687675476	stim	0		0	0.16666667	0.0666666666667	90.0	88.0	0.0333333333333	0.1333333333333	0.0666666666667	204.57016682624817	23.995311975479126
5	136.1748239994049	response	0	y		0.16666667	0.0666666666667	90.0	88.0	0.0333333333333	0.1333333333333	0.0666666666667	205.53328394889832	
5	136.76579594612122	pulse	0	t		0.16666667	0.0666666666667	90.0	88.0	0.0333333333333	0.1333333333333	0.0666666666667	206.12425589561462	
5	138.36588788032532	pulse	0	t		0.16666667	0.0666666666667	90.0	88.0	0.0333333333333	0.1333333333333	0.0666666666667	207.72434782981873	
5	139.07985997200012	response	0	y		0.16666667	0.0666666666667	90.0	88.0	0.0333333333333	0.1333333333333	0.0666666666667	208.43831992149353	
5	139.96585893630981	pulse	0	t		0.16666667	0.0666666666667	90.0	88.0	0.0333333333333	0.1333333333333	0.0666666666667	209.32431888580322	
5	141.5338490009308	response	0	y		0.16666667	0.0666666666667	90.0	88.0	0.0333333333333	0.1333333333333	0.0666666666667	210.8923089504242	
5	141.56573104858398	pulse	0	t		0.16666667	0.0666666666667	90.0	88.0	0.0333333333333	0.1333333333333	0.0666666666667	210.9241909980774	
5	143.16591095924377	pulse	0	t		0.16666667	0.0666666666667	90.0	88.0	0.0333333333333	0.1333333333333	0.0666666666667	212.52437090873718	
5	144.2578558921814	response	0	y		0.16666667	0.0666666666667	90.0	88.0	0.0333333333333	0.1333333333333	0.0666666666667	213.6163158416748	
5	144.7658770084381	pulse	0	t		0.16666667	0.0666666666667	90.0	88.0	0.0333333333333	0.1333333333333	0.0666666666667	214.12433695793152	
5	146.36594200134277	pulse	0	t		0.16666667	0.0666666666667	90.0	88.0	0.0333333333333	0.1333333333333	0.0666666666667	215.72440195083618	
5	147.96597504615784	pulse	0	t		0.16666667	0.0666666666667	90.0	88.0	0.0333333333333	0.1333333333333	0.0666666666667	217.32443499565125	
5	149.56596899032593	pulse	0	t		0.16666667	0.0666666666667	90.0	88.0	0.0333333333333	0.1333333333333	0.0666666666667	218.92442893981934	
5	150.43799591064453	response	0	y		0.16666667	0.0666666666667	90.0	88.0	0.0333333333333	0.1333333333333	0.0666666666667	219.79645586013794	
5	151.1659858226776	pulse	0	t		0.16666667	0.0666666666667	90.0	88.0	0.0333333333333	0.1333333333333	0.0666666666667	220.52444577217102	
5	152.7660150527954	pulse	0	t		0.16666667	0.0666666666667	90.0	88.0	0.0333333333333	0.1333333333333	0.0666666666667	222.12447500228882	
5	154.36603093147278	pulse	0	t		0.16666667	0.0666666666667	90.0	88.0	0.0333333333333	0.1333333333333	0.0666666666667	223.7244908809662	
5	155.42804503440857	response	0	y		0.16666667	0.0666666666667	90.0	88.0	0.0333333333333	0.1333333333333	0.0666666666667	224.78650498390198	
5	155.96600484848022	pulse	0	t		0.16666667	0.0666666666667	90.0	88.0	0.0333333333333	0.1333333333333	0.0666666666667	225.32446479797363	
5	157.56605291366577	pulse	0	t		0.16666667	0.0666666666667	90.0	88.0	0.0333333333333	0.1333333333333	0.0666666666667	226.92451286315918	
5	159.16607189178467	pulse	0	t		0.16666667	0.0666666666667	90.0	88.0	0.0333333333333	0.1333333333333	0.0666666666667	228.52453184127808	
6	159.2070188522339	stim	0		0	0.16666667	0.0666666666667	180.0	112.0	0.0333333333333	0.1333333333333	0.0666666666667	228.5654788017273	24.00359010696411
6	160.76512789726257	pulse	0	t		0.16666667	0.0666666666667	180.0	112.0	0.0333333333333	0.1333333333333	0.0666666666667	230.12358784675598	
6	161.52107691764832	response	0	y		0.16666667	0.0666666666667	180.0	112.0	0.0333333333333	0.1333333333333	0.0666666666667	230.87953686714172	
6	162.36516189575195	pulse	0	t		0.16666667	0.0666666666667	180.0	112.0	0.0333333333333	0.1333333333333	0.0666666666667	231.72362184524536	
6	163.77817583084106	response	0	y		0.16666667	0.0666666666667	180.0	112.0	0.0333333333333	0.1333333333333	0.0666666666667	233.13663578033447	
6	163.96505403518677	pulse	0	t		0.16666667	0.0666666666667	180.0	112.0	0.0333333333333	0.1333333333333	0.0666666666667	233.32351398468018	
6	165.5652048587799	pulse	0	t		0.16666667	0.0666666666667	180.0	112.0	0.0333333333333	0.1333333333333	0.0666666666667	234.92366480827332	
6	166.63024282455444	response	0	y		0.16666667	0.0666666666667	180.0	112.0	0.0333333333333	0.1333333333333	0.0666666666667	235.98870277404785	
6	167.16519498825073	pulse	0	t		0.16666667	0.0666666666667	180.0	112.0	0.0333333333333	0.1333333333333	0.0666666666667	236.52365493774414	
6	168.76523184776306	pulse	0	t		0.16666667	0.0666666666667	180.0	112.0	0.0333333333333	0.1333333333333	0.0666666666667	238.12369179725647	
6	169.27539086341858	response	0	y		0.16666667	0.0666666666667	180.0	112.0	0.0333333333333	0.1333333333333	0.0666666666667	238.633850812912	
6	170.36524987220764	pulse	0	t		0.16666667	0.0666666666667	180.0	112.0	0.0333333333333	0.1333333333333	0.0666666666667	239.72370982170105	
6	171.9652760028839	pulse	0	t		0.16666667	0.0666666666667	180.0	112.0	0.0333333333333	0.1333333333333	0.0666666666667	241.32373595237732	
6	172.24421191215515	response	0	y		0.16666667	0.0666666666667	180.0	112.0	0.0333333333333	0.1333333333333	0.0666666666667	241.60267186164856	
6	173.56526494026184	pulse	0	t		0.16666667	0.0666666666667	180.0	112.0	0.0333333333333	0.1333333333333	0.0666666666667	242.92372488975525	
6	174.77532982826233	response	0	y		0.16666667	0.0666666666667	180.0	112.0	0.0333333333333	0.1333333333333	0.0666666666667	244.13378977775574	
6	175.1652548313141	pulse	0	t		0.16666667	0.0666666666667	180.0	112.0	0.0333333333333	0.1333333333333	0.0666666666667	244.5237147808075	
6	176.765389919281	pulse	0	t		0.16666667	0.0666666666667	180.0	112.0	0.0333333333333	0.1333333333333	0.0666666666667	246.1238498687744	
6	177.40489101409912	response	0	y		0.16666667	0.0666666666667	180.0	112.0	0.0333333333333	0.1333333333333	0.0666666666667	246.76335096359253	
6	178.3653600215912	pulse	0	t		0.16666667	0.0666666666667	180.0	112.0	0.0333333333333	0.1333333333333	0.0666666666667	247.7238199710846	
6	179.96542882919312	pulse	0	t		0.16666667	0.0666666666667	180.0	112.0	0.0333333333333	0.1333333333333	0.0666666666667	249.32388877868652	
6	181.56541395187378	pulse	0	t		0.16666667	0.0666666666667	180.0	112.0	0.0333333333333	0.1333333333333	0.0666666666667	250.9238739013672	
6	182.64638304710388	response	0	y		0.16666667	0.0666666666667	180.0	112.0	0.0333333333333	0.1333333333333	0.0666666666667	252.0048429965973	
6	183.1653549671173	pulse	0	t		0.16666667	0.0666666666667	180.0	112.0	0.0333333333333	0.1333333333333	0.0666666666667	252.52381491661072	
7	183.210608959198	stim	0		0	-1.0	1.0	-1.0	136.0	0.0333333333333	0.1333333333333	0.0666666666667	252.5690689086914	16.002263069152832
7	184.76926803588867	pulse	0	t		-1.0	1.0	-1.0	136.0	0.0333333333333	0.1333333333333	0.0666666666667	254.12772798538208	
7	184.97936582565308	response	0	y		-1.0	1.0	-1.0	136.0	0.0333333333333	0.1333333333333	0.0666666666667	254.33782577514648	
7	186.36946082115173	pulse	0	t		-1.0	1.0	-1.0	136.0	0.0333333333333	0.1333333333333	0.0666666666667	255.72792077064514	
7	187.96980595588684	pulse	0	t		-1.0	1.0	-1.0	136.0	0.0333333333333	0.1333333333333	0.0666666666667	257.32826590538025	
7	189.56993985176086	pulse	0	t		-1.0	1.0	-1.0	136.0	0.0333333333333	0.1333333333333	0.0666666666667	258.9283998012543	
7	191.1701488494873	pulse	0	t		-1.0	1.0	-1.0	136.0	0.0333333333333	0.1333333333333	0.0666666666667	260.5286087989807	
7	192.58701395988464	response	0	y		-1.0	1.0	-1.0	136.0	0.0333333333333	0.1333333333333	0.0666666666667	261.94547390937805	
7	192.77036786079407	pulse	0	t		-1.0	1.0	-1.0	136.0	0.0333333333333	0.1333333333333	0.0666666666667	262.1288278102875	
7	194.37067198753357	pulse	0	t		-1.0	1.0	-1.0	136.0	0.0333333333333	0.1333333333333	0.0666666666667	263.729131937027	
7	195.97096490859985	pulse	0	t		-1.0	1.0	-1.0	136.0	0.0333333333333	0.1333333333333	0.0666666666667	265.32942485809326	
7	197.57109093666077	pulse	0	t		-1.0	1.0	-1.0	136.0	0.0333333333333	0.1333333333333	0.0666666666667	266.9295508861542	
7	198.04614186286926	response	0	y		-1.0	1.0	-1.0	136.0	0.0333333333333	0.1333333333333	0.0666666666667	267.40460181236267	
7	199.17136597633362	pulse	0	t		-1.0	1.0	-1.0	136.0	0.0333333333333	0.1333333333333	0.0666666666667	268.529825925827	
8	199.21287202835083	stim	0		0	-1.0	1.0	-1.0	152.0	0.0333333333333	0.1333333333333	0.0666666666667	268.57133197784424	16.002416849136353
8	200.47170996665955	response	0	y		-1.0	1.0	-1.0	152.0	0.0333333333333	0.1333333333333	0.0666666666667	269.83016991615295	
8	200.77160692214966	pulse	0	t		-1.0	1.0	-1.0	152.0	0.0333333333333	0.1333333333333	0.0666666666667	270.13006687164307	
8	202.37194395065308	pulse	0	t		-1.0	1.0	-1.0	152.0	0.0333333333333	0.1333333333333	0.0666666666667	271.7304039001465	
8	203.9656629562378	pulse	0	t		-1.0	1.0	-1.0	152.0	0.0333333333333	0.1333333333333	0.0666666666667	273.3241229057312	
8	205.5658779144287	pulse	0	t		-1.0	1.0	-1.0	152.0	0.0333333333333	0.1333333333333	0.0666666666667	274.9243378639221	
8	206.09736585617065	response	0	y		-1.0	1.0	-1.0	152.0	0.0333333333333	0.1333333333333	0.0666666666667	275.45582580566406	
8	207.16593885421753	pulse	0	t		-1.0	1.0	-1.0	152.0	0.0333333333333	0.1333333333333	0.0666666666667	276.52439880371094	
8	208.7664270401001	pulse	0	t		-1.0	1.0	-1.0	152.0	0.0333333333333	0.1333333333333	0.0666666666667	278.1248869895935	
8	208.96625590324402	response	0	y		-1.0	1.0	-1.0	152.0	0.0333333333333	0.1333333333333	0.0666666666667	278.3247158527374	
8	210.36653590202332	pulse	0	t		-1.0	1.0	-1.0	152.0	0.0333333333333	0.1333333333333	0.0666666666667	279.7249958515167	
8	211.96676588058472	pulse	0	t		-1.0	1.0	-1.0	152.0	0.0333333333333	0.1333333333333	0.0666666666667	281.3252258300781	
8	212.56510281562805	response	0	y		-1.0	1.0	-1.0	152.0	0.0333333333333	0.1333333333333	0.0666666666667	281.92356276512146	
8	213.5669538974762	pulse	0	t		-1.0	1.0	-1.0	152.0	0.0333333333333	0.1333333333333	0.0666666666667	282.9254138469696	
8	215.16705989837646	pulse	0	t		-1.0	1.0	-1.0	152.0	0.0333333333333	0.1333333333333	0.0666666666667	284.5255198478699	
9	215.21528887748718	stim	0		0	0.16666667	0.0666666666667	180.0	168.0	0.0333333333333	0.1333333333333	0.0666666666667	284.5737488269806	23.99527907371521
9	216.76573991775513	pulse	0	t		0.16666667	0.0666666666667	180.0	168.0	0.0333333333333	0.1333333333333	0.0666666666667	286.12419986724854	
9	218.36580681800842	pulse	0	t		0.16666667	0.0666666666667	180.0	168.0	0.0333333333333	0.1333333333333	0.0666666666667	287.72426676750183	
9	219.96583890914917	pulse	0	t		0.16666667	0.0666666666667	180.0	168.0	0.0333333333333	0.1333333333333	0.0666666666667	289.3242988586426	
9	221.56585597991943	pulse	0	t		0.16666667	0.0666666666667	180.0	168.0	0.0333333333333	0.1333333333333	0.0666666666667	290.92431592941284	
9	221.99779796600342	response	0	y		0.16666667	0.0666666666667	180.0	168.0	0.0333333333333	0.1333333333333	0.0666666666667	291.3562579154968	
9	223.16590690612793	pulse	0	t		0.16666667	0.0666666666667	180.0	168.0	0.0333333333333	0.1333333333333	0.0666666666667	292.52436685562134	
9	224.55985689163208	response	0	y		0.16666667	0.0666666666667	180.0	168.0	0.0333333333333	0.1333333333333	0.0666666666667	293.9183168411255	
9	224.76573395729065	pulse	0	t		0.16666667	0.0666666666667	180.0	168.0	0.0333333333333	0.1333333333333	0.0666666666667	294.12419390678406	
9	226.36593103408813	pulse	0	t		0.16666667	0.0666666666667	180.0	168.0	0.0333333333333	0.1333333333333	0.0666666666667	295.72439098358154	
9	226.66180300712585	response	0	y		0.16666667	0.0666666666667	180.0	168.0	0.0333333333333	0.1333333333333	0.0666666666667	296.02026295661926	
9	227.96591782569885	pulse	0	t		0.16666667	0.0666666666667	180.0	168.0	0.0333333333333	0.1333333333333	0.0666666666667	297.32437777519226	
9	229.5659749507904	pulse	0	t		0.16666667	0.0666666666667	180.0	168.0	0.0333333333333	0.1333333333333	0.0666666666667	298.9244349002838	
9	231.1659939289093	pulse	0	t		0.16666667	0.0666666666667	180.0	168.0	0.0333333333333	0.1333333333333	0.0666666666667	300.5244538784027	
9	232.76595282554626	pulse	0	t		0.16666667	0.0666666666667	180.0	168.0	0.0333333333333	0.1333333333333	0.0666666666667	302.1244127750397	
9	232.93181991577148	response	0	y		0.16666667	0.0666666666667	180.0	168.0	0.0333333333333	0.1333333333333	0.0666666666667	302.2902798652649	
9	234.36598682403564	pulse	0	t		0.16666667	0.0666666666667	180.0	168.0	0.0333333333333	0.1333333333333	0.0666666666667	303.72444677352905	
9	235.96603989601135	pulse	0	t		0.16666667	0.0666666666667	180.0	168.0	0.0333333333333	0.1333333333333	0.0666666666667	305.32449984550476	
9	237.5661129951477	pulse	0	t		0.16666667	0.0666666666667	180.0	168.0	0.0333333333333	0.1333333333333	0.0666666666667	306.9245729446411	
9	239.16606998443604	pulse	0	t		0.16666667	0.0666666666667	180.0	168.0	0.0333333333333	0.1333333333333	0.0666666666667	308.52452993392944	
10	239.2105679512024	stim	0		0	0.16666667	0.0666666666667	90.0	192.0	0.0333333333333	0.1333333333333	0.0666666666667	308.5690279006958	24.003541946411133
10	240.144268989563	response	0	y		0.16666667	0.0666666666667	90.0	192.0	0.0333333333333	0.1333333333333	0.0666666666667	309.5027289390564	
10	240.76612901687622	pulse	0	t		0.16666667	0.0666666666667	90.0	192.0	0.0333333333333	0.1333333333333	0.0666666666667	310.12458896636963	
10	242.36615085601807	pulse	0	t		0.16666667	0.0666666666667	90.0	192.0	0.0333333333333	0.1333333333333	0.0666666666667	311.7246108055115	
10	242.63908982276917	response	0	y		0.16666667	0.0666666666667	90.0	192.0	0.0333333333333	0.1333333333333	0.0666666666667	311.9975497722626	
10	243.96613693237305	pulse	0	t		0.16666667	0.0666666666667	90.0	192.0	0.0333333333333	0.1333333333333	0.0666666666667	313.32459688186646	
10	245.56610083580017	pulse	0	t		0.16666667	0.0666666666667	90.0	192.0	0.0333333333333	0.1333333333333	0.0666666666667	314.9245607852936	
10	247.16614985466003	pulse	0	t		0.16666667	0.0666666666667	90.0	192.0	0.0333333333333	0.1333333333333	0.0666666666667	316.52460980415344	
10	248.76618099212646	pulse	0	t		0.16666667	0.0666666666667	90.0	192.0	0.0333333333333	0.1333333333333	0.0666666666667	318.1246409416199	
10	249.60809993743896	response	0	y		0.16666667	0.0666666666667	90.0	192.0	0.0333333333333	0.1333333333333	0.0666666666667	318.9665598869324	
10	250.3661379814148	pulse	0	t		0.16666667	0.0666666666667	90.0	192.0	0.0333333333333	0.1333333333333	0.0666666666667	319.7245979309082	
10	251.96518182754517	pulse	0	t		0.16666667	0.0666666666667	90.0	192.0	0.0333333333333	0.1333333333333	0.0666666666667	321.3236417770386	
10	253.56522703170776	pulse	0	t		0.16666667	0.0666666666667	90.0	192.0	0.0333333333333	0.1333333333333	0.0666666666667	322.9236869812012	
10	255.1651909351349	pulse	0	t		0.16666667	0.0666666666667	90.0	192.0	0.0333333333333	0.1333333333333	0.0666666666667	324.5236508846283	
10	256.7652750015259	pulse	0	t		0.16666667	0.0666666666667	90.0	192.0	0.0333333333333	0.1333333333333	0.0666666666667	326.1237349510193	
10	258.36527585983276	pulse	0	t		0.16666667	0.0666666666667	90.0	192.0	0.0333333333333	0.1333333333333	0.0666666666667	327.7237358093262	
10	259.68528604507446	response	0	y		0.16666667	0.0666666666667	90.0	192.0	0.0333333333333	0.1333333333333	0.0666666666667	329.04374599456787	
10	259.9652199745178	pulse	0	t		0.16666667	0.0666666666667	90.0	192.0	0.0333333333333	0.1333333333333	0.0666666666667	329.32367992401123	
10	261.56529784202576	pulse	0	t		0.16666667	0.0666666666667	90.0	192.0	0.0333333333333	0.1333333333333	0.0666666666667	330.92375779151917	
10	261.74720287323	response	0	y		0.16666667	0.0666666666667	90.0	192.0	0.0333333333333	0.1333333333333	0.0666666666667	331.1056628227234	
10	263.16543889045715	pulse	0	t		0.16666667	0.0666666666667	90.0	192.0	0.0333333333333	0.1333333333333	0.0666666666667	332.52389883995056	
11	263.2141098976135	stim	0		0	-1.0	1.0	-1.0	216.0	0.0333333333333	0.1333333333333	0.0666666666667	332.57256984710693	16.00250005722046
11	264.76625084877014	pulse	0	t		-1.0	1.0	-1.0	216.0	0.0333333333333	0.1333333333333	0.0666666666667	334.12471079826355	
11	266.3665659427643	pulse	0	t		-1.0	1.0	-1.0	216.0	0.0333333333333	0.1333333333333	0.0666666666667	335.7250258922577	
11	267.96673798561096	pulse	0	t		-1.0	1.0	-1.0	216.0	0.0333333333333	0.1333333333333	0.0666666666667	337.32519793510437	
11	268.66509795188904	response	0	y		-1.0	1.0	-1.0	216.0	0.0333333333333	0.1333333333333	0.0666666666667	338.02355790138245	
11	269.5672059059143	pulse	0	t		-1.0	1.0	-1.0	216.0	0.0333333333333	0.1333333333333	0.0666666666667	338.9256658554077	
11	271.16722202301025	pulse	0	t		-1.0	1.0	-1.0	216.0	0.0333333333333	0.1333333333333	0.0666666666667	340.52568197250366	
11	271.22381687164307	response	0	y		-1.0	1.0	-1.0	216.0	0.0333333333333	0.1333333333333	0.0666666666667	340.5822768211365	
11	272.7656719684601	pulse	0	t		-1.0	1.0	-1.0	216.0	0.0333333333333	0.1333333333333	0.0666666666667	342.1241319179535	
11	274.36588287353516	pulse	0	t		-1.0	1.0	-1.0	216.0	0.0333333333333	0.1333333333333	0.0666666666667	343.72434282302856	
11	274.45757699012756	response	0	y		-1.0	1.0	-1.0	216.0	0.0333333333333	0.1333333333333	0.0666666666667	343.816036939621	
11	275.9663019180298	pulse	0	t		-1.0	1.0	-1.0	216.0	0.0333333333333	0.1333333333333	0.0666666666667	345.3247618675232	
11	277.5663468837738	pulse	0	t		-1.0	1.0	-1.0	216.0	0.0333333333333	0.1333333333333	0.0666666666667	346.9248068332672	
11	279.166610956192	pulse	0	t		-1.0	1.0	-1.0	216.0	0.0333333333333	0.1333333333333	0.0666666666667	348.5250709056854	
12	279.216609954834	stim	0		0	0.16666667	0.0666666666667	0.0	232.0	0.0333333333333	0.1333333333333	0.0666666666667	348.5750699043274	23.99511408805847
12	280.76556181907654	pulse	0	t		0.16666667	0.0666666666667	0.0	232.0	0.0333333333333	0.1333333333333	0.0666666666667	350.12402176856995	
12	282.3655478954315	pulse	0	t		0.16666667	0.0666666666667	0.0	232.0	0.0333333333333	0.1333333333333	0.0666666666667	351.7240078449249	
12	283.50057196617126	response	0	y		0.16666667	0.0666666666667	0.0	232.0	0.0333333333333	0.1333333333333	0.0666666666667	352.8590319156647	
12	283.9654939174652	pulse	0	t		0.16666667	0.0666666666667	0.0	232.0	0.0333333333333	0.1333333333333	0.0666666666667	353.3239538669586	
12	285.5656590461731	pulse	0	t		0.16666667	0.0666666666667	0.0	232.0	0.0333333333333	0.1333333333333	0.0666666666667	354.9241189956665	
12	285.9426200389862	response	0	y		0.16666667	0.0666666666667	0.0	232.0	0.0333333333333	0.1333333333333	0.0666666666667	355.3010799884796	
12	287.16559982299805	pulse	0	t		0.16666667	0.0666666666667	0.0	232.0	0.0333333333333	0.1333333333333	0.0666666666667	356.52405977249146	
12	288.6616368293762	response	0	y		0.16666667	0.0666666666667	0.0	232.0	0.0333333333333	0.1333333333333	0.0666666666667	358.02009677886963	
12	288.76548504829407	pulse	0	t		0.16666667	0.0666666666667	0.0	232.0	0.0333333333333	0.1333333333333	0.0666666666667	358.1239449977875	
12	290.365669965744	pulse	0	t		0.16666667	0.0666666666667	0.0	232.0	0.0333333333333	0.1333333333333	0.0666666666667	359.7241299152374	
12	291.18763399124146	response	0	y		0.16666667	0.0666666666667	0.0	232.0	0.0333333333333	0.1333333333333	0.0666666666667	360.54609394073486	
12	291.96567702293396	pulse	0	t		0.16666667	0.0666666666667	0.0	232.0	0.0333333333333	0.1333333333333	0.0666666666667	361.32413697242737	
12	293.5656888484955	pulse	0	t		0.16666667	0.0666666666667	0.0	232.0	0.0333333333333	0.1333333333333	0.0666666666667	362.9241487979889	
12	295.16569900512695	pulse	0	t		0.16666667	0.0666666666667	0.0	232.0	0.0333333333333	0.1333333333333	0.0666666666667	364.52415895462036	
12	296.5787889957428	response	0	y		0.16666667	0.0666666666667	0.0	232.0	0.0333333333333	0.1333333333333	0.0666666666667	365.9372489452362	
12	296.7657220363617	pulse	0	t		0.16666667	0.0666666666667	0.0	232.0	0.0333333333333	0.1333333333333	0.0666666666667	366.1241819858551	
12	298.36580300331116	pulse	0	t		0.16666667	0.0666666666667	0.0	232.0	0.0333333333333	0.1333333333333	0.0666666666667	367.72426295280457	
12	299.10278391838074	response	0	y		0.16666667	0.0666666666667	0.0	232.0	0.0333333333333	0.1333333333333	0.0666666666667	368.46124386787415	
12	299.9657759666443	pulse	0	t		0.16666667	0.0666666666667	0.0	232.0	0.0333333333333	0.1333333333333	0.0666666666667	369.3242359161377	
12	301.56576204299927	pulse	0	t		0.16666667	0.0666666666667	0.0	232.0	0.0333333333333	0.1333333333333	0.0666666666667	370.9242219924927	
12	301.81172704696655	response	0	y		0.16666667	0.0666666666667	0.0	232.0	0.0333333333333	0.1333333333333	0.0666666666667	371.17018699645996	
12	303.16580295562744	pulse	0	t		0.16666667	0.0666666666667	0.0	232.0	0.0333333333333	0.1333333333333	0.0666666666667	372.52426290512085	
13	303.21172404289246	stim	0		0	0.16666667	0.0666666666667	270.0	256.0	0.0333333333333	0.1333333333333	0.0666666666667	372.57018399238586	24.00358486175537
13	304.4658098220825	response	0	y		0.16666667	0.0666666666667	270.0	256.0	0.0333333333333	0.1333333333333	0.0666666666667	373.8242697715759	
13	304.7657618522644	pulse	0	t		0.16666667	0.0666666666667	270.0	256.0	0.0333333333333	0.1333333333333	0.0666666666667	374.1242218017578	
13	306.3658368587494	pulse	0	t		0.16666667	0.0666666666667	270.0	256.0	0.0333333333333	0.1333333333333	0.0666666666667	375.7242968082428	
13	307.9658968448639	pulse	0	t		0.16666667	0.0666666666667	270.0	256.0	0.0333333333333	0.1333333333333	0.0666666666667	377.3243567943573	
13	309.56596302986145	pulse	0	t		0.16666667	0.0666666666667	270.0	256.0	0.0333333333333	0.1333333333333	0.0666666666667	378.92442297935486	
13	311.1659359931946	pulse	0	t		0.16666667	0.0666666666667	270.0	256.0	0.0333333333333	0.1333333333333	0.0666666666667	380.524395942688	
13	311.2467408180237	response	0	y		0.16666667	0.0666666666667	270.0	256.0	0.0333333333333	0.1333333333333	0.0666666666667	380.6052007675171	
13	312.7660119533539	pulse	0	t		0.16666667	0.0666666666667	270.0	256.0	0.0333333333333	0.1333333333333	0.0666666666667	382.1244719028473	
13	314.3660018444061	pulse	0	t		0.16666667	0.0666666666667	270.0	256.0	0.0333333333333	0.1333333333333	0.0666666666667	383.72446179389954	
13	315.4729528427124	response	0	y		0.16666667	0.0666666666667	270.0	256.0	0.0333333333333	0.1333333333333	0.0666666666667	384.8314127922058	
13	315.965931892395	pulse	0	t		0.16666667	0.0666666666667	270.0	256.0	0.0333333333333	0.1333333333333	0.0666666666667	385.3243918418884	
13	317.56596994400024	pulse	0	t		0.16666667	0.0666666666667	270.0	256.0	0.0333333333333	0.1333333333333	0.0666666666667	386.92442989349365	
13	318.85399103164673	response	0	y		0.16666667	0.0666666666667	270.0	256.0	0.0333333333333	0.1333333333333	0.0666666666667	388.21245098114014	
13	319.1658899784088	pulse	0	t		0.16666667	0.0666666666667	270.0	256.0	0.0333333333333	0.1333333333333	0.0666666666667	388.5243499279022	
13	320.7659800052643	pulse	0	t		0.16666667	0.0666666666667	270.0	256.0	0.0333333333333	0.1333333333333	0.0666666666667	390.1244399547577	
13	322.36604595184326	pulse	0	t		0.16666667	0.0666666666667	270.0	256.0	0.0333333333333	0.1333333333333	0.0666666666667	391.72450590133667	
13	322.80637097358704	response	0	y		0.16666667	0.0666666666667	270.0	256.0	0.0333333333333	0.1333333333333	0.0666666666667	392.16483092308044	
13	323.9659729003906	pulse	0	t		0.16666667	0.0666666666667	270.0	256.0	0.0333333333333	0.1333333333333	0.0666666666667	393.32443284988403	
13	325.56608486175537	pulse	0	t		0.16666667	0.0666666666667	270.0	256.0	0.0333333333333	0.1333333333333	0.0666666666667	394.9245448112488	
13	327.1661448478699	pulse	0	t		0.16666667	0.0666666666667	270.0	256.0	0.0333333333333	0.1333333333333	0.0666666666667	396.5246047973633	
14	327.2153089046478	stim	0		0								396.57376885414124	24.778815984725952
14	327.6422998905182	response	0	y									397.0007598400116	
14	328.76745200157166	pulse	0	t									398.12591195106506	
14	329.6074318885803	response	0	y									398.96589183807373	
14	330.3678078651428	pulse	0	t									399.72626781463623	
14	331.9679419994354	pulse	0	t									401.32640194892883	
14	333.56641602516174	pulse	0	t									402.92487597465515	
14	333.93314695358276	response	0	y									403.2916069030762	
14	335.1665790081024	pulse	0	t									404.5250389575958	
14	336.5752408504486	response	0	y									405.933700799942	
14	336.7669188976288	pulse	0	t									406.1253788471222	
14	338.3672249317169	pulse	0	t									407.7256848812103	
14	339.9673149585724	pulse	0	t									409.3257749080658	
14	339.97565603256226	response	0	y									409.33411598205566	
14	341.5676038265228	pulse	0	t									410.92606377601624	
14	342.33432698249817	response	0	y									411.6927869319916	
14	343.1678538322449	pulse	0	t									412.5263137817383	
14	344.76821994781494	pulse	0	t									414.12667989730835	
14	346.3683388233185	pulse	0	t									415.7267987728119	
14	347.9684958457947	pulse	0	t									417.3269557952881	
14	349.35211992263794	response	0	y									418.71057987213135	
14	349.56869983673096	pulse	0	t									418.92715978622437	
14	351.16915798187256	pulse	0	t									420.52761793136597	
